Trial_N,Block_N,Contingency,Expectedness,Cue_idx,Cue_name,Outcome_idx,Outcome_name,Outcome_p_sad,Response_idx,Response_name,Response_RT,Confidence_idx,Confidence_name,Confidence_RT
1,1,0.75,E,1,Low,1,Sad,80,1,Sad,841,1,High,667
2,1,0.75,E,1,Low,1,Sad,100,1,Sad,624,1,High,134
3,1,0.75,E,1,Low,1,Sad,80,1,Sad,408,1,High,125
4,1,0.75,E,0,High,0,Happy,20,0,Happy,440,1,High,112
5,1,0.75,E,0,High,0,Happy,0,0,Happy,381,1,High,106
6,1,0.75,UE,0,High,1,Sad,100,1,Sad,599,1,High,114
7,1,0.75,E,1,Low,1,Sad,60,1,Sad,431,1,High,139
8,1,0.75,E,0,High,0,Happy,20,0,Happy,537,1,High,99
9,1,0.75,UE,1,Low,0,Happy,20,0,Happy,999,1,High,114
10,1,0.75,E,1,Low,1,Sad,100,1,Sad,522,1,High,115
11,1,0.75,E,1,Low,1,Sad,60,1,Sad,969,0,Low,120
12,1,0.75,E,0,High,0,Happy,40,1,Sad,725,1,High,139
13,1,0.75,E,1,Low,1,Sad,60,1,Sad,683,1,High,108
14,1,0.75,E,1,Low,1,Sad,60,1,Sad,374,1,High,170
15,1,0.75,E,1,Low,1,Sad,60,1,Sad,362,1,High,132
16,1,0.75,UE,0,High,1,Sad,80,1,Sad,460,1,High,113
17,1,0.75,E,0,High,0,Happy,0,0,Happy,552,1,High,103
18,1,0.75,E,0,High,0,Happy,20,0,Happy,508,1,High,136
19,1,0.75,E,1,Low,1,Sad,80,1,Sad,629,0,Low,123
20,1,0.75,E,0,High,0,Happy,0,0,Happy,565,1,High,119
21,1,0.75,UE,0,High,1,Sad,100,1,Sad,609,1,High,338
22,1,0.75,E,0,High,0,Happy,20,1,Sad,1046,0,Low,983
23,1,0.75,E,1,Low,1,Sad,60,1,Sad,1622,1,High,134
24,1,0.75,E,0,High,0,Happy,40,0,Happy,750,1,High,115
25,1,0.75,UE,1,Low,0,Happy,0,0,Happy,614,1,High,104
26,1,0.75,E,1,Low,1,Sad,80,1,Sad,829,1,High,137
27,1,0.75,E,0,High,0,Happy,0,0,Happy,487,1,High,100
28,1,0.75,E,0,High,0,Happy,0,0,Happy,750,1,High,89
29,1,0.75,E,1,Low,1,Sad,60,1,Sad,723,1,High,128
30,1,0.75,E,1,Low,1,Sad,100,1,Sad,542,1,High,126
31,1,0.75,UE,1,Low,0,Happy,40,0,Happy,921,0,Low,105
32,1,0.75,UE,0,High,1,Sad,100,1,Sad,685,1,High,134
33,1,0.75,E,0,High,0,Happy,40,1,Sad,1540,0,Low,106
34,1,0.75,E,0,High,0,Happy,40,1,Sad,680,0,Low,110
35,1,0.75,E,1,Low,1,Sad,80,1,Sad,734,1,High,130
36,1,0.75,E,1,Low,1,Sad,60,1,Sad,606,1,High,201
37,1,0.75,E,0,High,0,Happy,40,1,Sad,1299,0,Low,101
38,1,0.75,UE,0,High,1,Sad,80,1,Sad,680,1,High,115
39,1,0.75,E,1,Low,1,Sad,60,1,Sad,632,0,Low,118
40,1,0.75,E,0,High,0,Happy,40,1,Sad,815,0,Low,270
41,1,0.75,UE,1,Low,0,Happy,20,0,Happy,695,1,High,132
42,1,0.75,E,0,High,0,Happy,20,0,Happy,494,1,High,109
43,1,0.75,E,1,Low,1,Sad,100,1,Sad,727,1,High,135
44,1,0.75,UE,0,High,1,Sad,80,1,Sad,657,1,High,144
45,1,0.75,E,1,Low,1,Sad,100,1,Sad,531,1,High,143
46,1,0.75,E,0,High,0,Happy,0,0,Happy,489,1,High,87
47,1,0.75,E,1,Low,1,Sad,80,1,Sad,905,1,High,120
48,1,0.75,UE,1,Low,0,Happy,20,0,Happy,1252,0,Low,99
49,1,0.75,E,0,High,0,Happy,0,0,Happy,543,1,High,94
50,1,0.75,E,1,Low,1,Sad,80,1,Sad,662,1,High,153
51,1,0.75,E,0,High,0,Happy,20,0,Happy,1278,0,Low,138
52,1,0.75,UE,0,High,1,Sad,60,1,Sad,1017,1,High,333
53,1,0.75,UE,1,Low,0,Happy,0,0,Happy,555,1,High,114
54,1,0.75,E,1,Low,1,Sad,100,1,Sad,720,1,High,119
55,1,0.75,E,1,Low,1,Sad,100,1,Sad,960,1,High,121
56,1,0.75,E,0,High,0,Happy,0,0,Happy,631,1,High,113
57,1,0.75,E,1,Low,1,Sad,100,1,Sad,588,1,High,137
58,1,0.75,UE,0,High,1,Sad,100,1,Sad,570,1,High,137
59,1,0.75,E,1,Low,1,Sad,80,1,Sad,549,1,High,85
60,1,0.75,E,0,High,0,Happy,20,0,Happy,668,1,High,97
61,1,0.75,UE,1,Low,0,Happy,40,1,Sad,810,0,Low,121
62,1,0.75,UE,1,Low,0,Happy,20,1,Sad,1198,0,Low,135
63,1,0.75,E,0,High,0,Happy,20,0,Happy,1325,1,High,118
64,1,0.75,E,1,Low,1,Sad,60,1,Sad,716,0,Low,129
65,1,0.75,E,0,High,0,Happy,40,1,Sad,1184,0,Low,87
66,1,0.75,E,1,Low,1,Sad,80,1,Sad,855,0,Low,99
67,1,0.75,UE,1,Low,0,Happy,0,0,Happy,688,1,High,122
68,1,0.75,E,0,High,0,Happy,40,1,Sad,659,0,Low,84
69,1,0.75,E,0,High,0,Happy,40,1,Sad,608,0,Low,113
70,1,0.75,E,0,High,0,Happy,0,0,Happy,698,1,High,122
71,1,0.75,UE,1,Low,0,Happy,0,0,Happy,459,1,High,93
72,1,0.75,E,1,Low,1,Sad,60,1,Sad,611,0,Low,102
73,1,0.75,E,0,High,0,Happy,40,1,Sad,406,0,Low,125
74,1,0.75,E,1,Low,1,Sad,100,1,Sad,685,1,High,160
75,1,0.75,E,1,Low,1,Sad,100,1,Sad,520,1,High,157
76,1,0.75,E,0,High,0,Happy,20,0,Happy,751,1,High,109
77,1,0.75,UE,0,High,1,Sad,60,1,Sad,587,0,Low,112
78,1,0.75,E,0,High,0,Happy,0,0,Happy,706,1,High,105
79,1,0.75,E,0,High,0,Happy,40,1,Sad,563,0,Low,86
80,1,0.75,UE,0,High,1,Sad,60,1,Sad,678,0,Low,113
81,1,0.75,E,0,High,0,Happy,40,1,Sad,488,0,Low,83
82,1,0.75,UE,0,High,1,Sad,80,1,Sad,640,1,High,165
83,1,0.75,E,0,High,0,Happy,0,0,Happy,662,1,High,112
84,1,0.75,E,0,High,0,Happy,20,0,Happy,796,1,High,107
85,1,0.75,E,1,Low,1,Sad,100,1,Sad,713,1,High,95
86,1,0.75,E,1,Low,1,Sad,100,1,Sad,362,1,High,121
87,1,0.75,UE,1,Low,0,Happy,40,1,Sad,855,0,Low,77
88,1,0.75,E,1,Low,1,Sad,80,1,Sad,495,0,Low,64
89,1,0.75,E,0,High,0,Happy,0,0,Happy,413,1,High,92
90,1,0.75,UE,0,High,1,Sad,60,1,Sad,630,0,Low,83
91,1,0.75,E,1,Low,1,Sad,60,1,Sad,475,0,Low,54
92,1,0.75,E,1,Low,1,Sad,80,1,Sad,362,0,Low,77
93,1,0.75,E,0,High,0,Happy,20,0,Happy,657,1,High,103
94,1,0.75,E,0,High,0,Happy,20,0,Happy,436,1,High,106
95,1,0.75,UE,1,Low,0,Happy,40,0,Happy,370,1,High,137
96,1,0.75,E,1,Low,1,Sad,80,1,Sad,1482,1,High,129
97,2,0.25,E,1,Low,0,Happy,0,0,Happy,595,1,High,84
98,2,0.25,UE,1,Low,1,Sad,80,1,Sad,840,1,High,119
99,2,0.25,E,1,Low,0,Happy,40,1,Sad,1353,0,Low,76
100,2,0.25,E,1,Low,0,Happy,40,1,Sad,682,0,Low,75
101,2,0.25,E,0,High,1,Sad,60,1,Sad,647,1,High,322
102,2,0.25,E,1,Low,0,Happy,20,0,Happy,763,1,High,106
103,2,0.25,E,0,High,1,Sad,80,1,Sad,597,1,High,77
104,2,0.25,UE,1,Low,1,Sad,100,1,Sad,540,1,High,139
105,2,0.25,E,1,Low,0,Happy,20,0,Happy,841,1,High,113
106,2,0.25,UE,1,Low,1,Sad,60,1,Sad,636,1,High,136
107,2,0.25,UE,0,High,0,Happy,20,0,Happy,504,1,High,94
108,2,0.25,E,0,High,1,Sad,100,1,Sad,549,1,High,150
109,2,0.25,E,1,Low,0,Happy,40,1,Sad,1142,0,Low,95
110,2,0.25,E,0,High,1,Sad,80,1,Sad,672,1,High,129
111,2,0.25,E,0,High,1,Sad,60,1,Sad,577,1,High,473
112,2,0.25,E,1,Low,0,Happy,0,0,Happy,751,1,High,118
113,2,0.25,UE,0,High,0,Happy,40,1,Sad,805,0,Low,74
114,2,0.25,E,0,High,1,Sad,80,1,Sad,757,1,High,130
115,2,0.25,E,0,High,1,Sad,100,1,Sad,646,1,High,123
116,2,0.25,E,0,High,1,Sad,60,1,Sad,813,0,Low,79
117,2,0.25,E,1,Low,0,Happy,0,0,Happy,451,1,High,93
118,2,0.25,E,1,Low,0,Happy,20,0,Happy,847,1,High,172
119,2,0.25,UE,0,High,0,Happy,0,0,Happy,532,1,High,109
120,2,0.25,E,0,High,1,Sad,100,1,Sad,575,1,High,135
121,3,0.75,E,0,High,0,Happy,0,0,Happy,1429,1,High,476
122,3,0.75,E,0,High,0,Happy,40,1,Sad,744,0,Low,120
123,3,0.75,E,0,High,0,Happy,0,0,Happy,606,1,High,109
124,3,0.75,E,1,Low,1,Sad,80,1,Sad,677,1,High,128
125,3,0.75,E,1,Low,1,Sad,60,1,Sad,463,1,High,134
126,3,0.75,UE,0,High,1,Sad,100,1,Sad,508,1,High,111
127,3,0.75,E,0,High,0,Happy,20,0,Happy,519,1,High,115
128,3,0.75,E,0,High,0,Happy,40,0,Happy,1700,0,Low,101
129,3,0.75,UE,1,Low,0,Happy,20,0,Happy,1159,0,Low,310
130,3,0.75,E,1,Low,1,Sad,100,1,Sad,670,1,High,132
131,3,0.75,E,0,High,0,Happy,40,0,Happy,1394,0,Low,107
132,3,0.75,UE,1,Low,0,Happy,40,1,Sad,888,0,Low,75
133,3,0.75,UE,0,High,1,Sad,60,1,Sad,1214,1,High,130
134,3,0.75,E,1,Low,1,Sad,80,1,Sad,474,1,High,110
135,3,0.75,E,1,Low,1,Sad,60,1,Sad,619,1,High,174
136,3,0.75,E,1,Low,1,Sad,60,1,Sad,394,1,High,148
137,3,0.75,E,1,Low,1,Sad,100,1,Sad,461,1,High,139
138,3,0.75,UE,0,High,1,Sad,80,1,Sad,450,1,High,121
139,3,0.75,E,0,High,0,Happy,20,0,Happy,577,1,High,120
140,3,0.75,E,1,Low,1,Sad,80,1,Sad,455,1,High,140
141,3,0.75,E,1,Low,1,Sad,100,1,Sad,433,1,High,135
142,3,0.75,E,0,High,0,Happy,0,0,Happy,557,1,High,120
143,3,0.75,UE,1,Low,0,Happy,0,0,Happy,418,1,High,117
144,3,0.75,E,0,High,0,Happy,20,0,Happy,372,1,High,122
145,4,0.25,E,1,Low,0,Happy,0,0,Happy,380,1,High,115
146,4,0.25,E,1,Low,0,Happy,20,0,Happy,316,1,High,118
147,4,0.25,UE,1,Low,1,Sad,80,1,Sad,553,1,High,133
148,4,0.25,UE,0,High,0,Happy,40,0,Happy,606,1,High,106
149,4,0.25,E,0,High,1,Sad,80,1,Sad,485,1,High,155
150,4,0.25,E,0,High,1,Sad,60,1,Sad,907,0,Low,148
151,4,0.25,E,1,Low,0,Happy,0,0,Happy,553,1,High,116
152,4,0.25,E,0,High,1,Sad,80,1,Sad,472,1,High,142
153,4,0.25,E,1,Low,0,Happy,40,0,Happy,1389,0,Low,103
154,4,0.25,E,0,High,1,Sad,100,1,Sad,974,1,High,156
155,4,0.25,E,0,High,1,Sad,100,1,Sad,384,1,High,335
156,4,0.25,E,0,High,1,Sad,80,1,Sad,564,1,High,119
157,4,0.25,E,1,Low,0,Happy,20,0,Happy,794,1,High,445
158,4,0.25,UE,0,High,0,Happy,20,0,Happy,473,1,High,120
159,4,0.25,E,0,High,1,Sad,60,1,Sad,572,1,High,138
160,4,0.25,E,1,Low,0,Happy,40,0,Happy,1348,0,Low,101
161,4,0.25,E,1,Low,0,Happy,0,0,Happy,519,1,High,102
162,4,0.25,UE,1,Low,1,Sad,60,1,Sad,998,0,Low,103
163,4,0.25,E,0,High,1,Sad,100,1,Sad,481,1,High,163
164,4,0.25,E,0,High,1,Sad,60,1,Sad,1069,0,Low,95
165,4,0.25,UE,0,High,0,Happy,0,0,Happy,458,1,High,116
166,4,0.25,E,1,Low,0,Happy,40,1,Sad,562,0,Low,98
167,4,0.25,E,1,Low,0,Happy,20,1,Sad,531,0,Low,75
168,4,0.25,UE,1,Low,1,Sad,100,1,Sad,1149,1,High,111
169,5,0.75,E,0,High,0,Happy,20,0,Happy,1297,1,High,114
170,5,0.75,UE,0,High,1,Sad,60,1,Sad,1118,0,Low,163
171,5,0.75,E,0,High,0,Happy,0,0,Happy,532,1,High,119
172,5,0.75,E,0,High,0,Happy,40,1,Sad,1935,0,Low,130
173,5,0.75,E,1,Low,1,Sad,60,1,Sad,536,1,High,359
174,5,0.75,E,1,Low,1,Sad,80,1,Sad,559,1,High,137
175,5,0.75,E,1,Low,1,Sad,60,1,Sad,411,1,High,141
176,5,0.75,E,0,High,0,Happy,20,0,Happy,500,1,High,112
177,5,0.75,E,1,Low,1,Sad,100,1,Sad,511,1,High,158
178,5,0.75,UE,1,Low,0,Happy,0,0,Happy,775,1,High,143
179,5,0.75,E,0,High,0,Happy,20,0,Happy,642,1,High,141
180,5,0.75,UE,1,Low,0,Happy,40,1,Sad,2315,0,Low,201
181,5,0.75,E,1,Low,1,Sad,60,1,Sad,676,1,High,150
182,5,0.75,E,0,High,0,Happy,40,1,Sad,706,0,Low,121
183,5,0.75,E,1,Low,1,Sad,80,1,Sad,809,1,High,145
184,5,0.75,E,1,Low,1,Sad,80,1,Sad,491,1,High,134
185,5,0.75,UE,0,High,1,Sad,80,1,Sad,452,1,High,107
186,5,0.75,UE,0,High,1,Sad,100,1,Sad,339,1,High,119
187,5,0.75,E,0,High,0,Happy,0,0,Happy,592,1,High,142
188,5,0.75,E,1,Low,1,Sad,100,1,Sad,625,1,High,291
189,5,0.75,UE,1,Low,0,Happy,20,0,Happy,1015,1,High,161
190,5,0.75,E,0,High,0,Happy,0,0,Happy,463,1,High,148
191,5,0.75,E,1,Low,1,Sad,100,1,Sad,502,1,High,111
192,5,0.75,E,0,High,0,Happy,40,0,Happy,854,0,Low,365
