Trial_N,Block_N,Contingency,Expectedness,Cue_idx,Cue_name,Outcome_idx,Outcome_name,Outcome_p_sad,Response_idx,Response_name,Response_RT,Confidence_idx,Confidence_name,Confidence_RT
1,1,0.75,E,1,Low,1,Sad,80,1,Sad,3514.89999999851,1,High,1608.10000000149
2,1,0.75,E,1,Low,1,Sad,100,1,Sad,1023.80000000075,1,High,629
3,1,0.75,E,1,Low,1,Sad,80,1,Sad,607.300000000745,1,High,457.400000002235
4,1,0.75,E,0,High,0,Happy,20,0,Happy,1262.80000000075,1,High,484.199999999255
5,1,0.75,E,0,High,0,Happy,0,0,Happy,437.60000000149,1,High,1356.09999999776
6,1,0.75,UE,0,High,1,Sad,100,1,Sad,1266.5,1,High,957.89999999851
7,1,0.75,E,1,Low,1,Sad,60,1,Sad,910.39999999851,1,High,752.199999999255
8,1,0.75,E,0,High,0,Happy,20,0,Happy,930.5,1,High,1188.89999999851
9,1,0.75,UE,1,Low,0,Happy,20,0,Happy,831.599999997765,1,High,493.5
10,1,0.75,E,1,Low,1,Sad,100,1,Sad,520,1,High,418.699999999255
11,1,0.75,E,1,Low,1,Sad,60,1,Sad,691.800000000745,1,High,509.800000000745
12,1,0.75,E,0,High,0,Happy,40,1,Sad,746.199999999255,1,High,503.60000000149
13,1,0.75,E,1,Low,1,Sad,60,1,Sad,1146.69999999925,1,High,2018.80000000075
14,1,0.75,E,1,Low,1,Sad,60,1,Sad,515.699999999255,1,High,703
15,1,0.75,E,1,Low,1,Sad,60,1,Sad,645.199999999255,1,High,777.099999997765
16,1,0.75,UE,0,High,1,Sad,80,1,Sad,537.10000000149,1,High,375.5
17,1,0.75,E,0,High,0,Happy,0,0,Happy,969,1,High,515.699999999255
18,1,0.75,E,0,High,0,Happy,20,0,Happy,2303.89999999851,1,High,1661.30000000075
19,1,0.75,E,1,Low,1,Sad,80,1,Sad,616.39999999851,1,High,858.5
20,1,0.75,E,0,High,0,Happy,0,0,Happy,708,1,High,466.400000002235
21,1,0.75,UE,0,High,1,Sad,100,1,Sad,441.800000000745,1,High,1190.80000000075
22,1,0.75,E,0,High,0,Happy,20,0,Happy,954.79999999702,1,High,421.599999997765
23,1,0.75,E,1,Low,1,Sad,60,1,Sad,553.699999999255,1,High,441.699999999255
24,1,0.75,E,0,High,0,Happy,40,1,Sad,995.60000000149,1,High,492.79999999702
25,1,0.75,UE,1,Low,0,Happy,0,0,Happy,540.79999999702,1,High,854
26,1,0.75,E,1,Low,1,Sad,80,1,Sad,583.800000000745,1,High,488.5
27,1,0.75,E,0,High,0,Happy,0,0,Happy,627.099999997765,1,High,887.400000002235
28,1,0.75,E,0,High,0,Happy,0,0,Happy,497.5,1,High,411.79999999702
29,1,0.75,E,1,Low,1,Sad,60,1,Sad,399.599999997765,1,High,398.5
30,1,0.75,E,1,Low,1,Sad,100,1,Sad,451.400000002235,1,High,337.10000000149
31,1,0.75,UE,1,Low,0,Happy,40,1,Sad,809.89999999851,1,High,414.300000000745
32,1,0.75,UE,0,High,1,Sad,100,1,Sad,630.60000000149,1,High,427.39999999851
33,1,0.75,E,0,High,0,Happy,40,1,Sad,940.900000002235,1,High,450.699999999255
34,1,0.75,E,0,High,0,Happy,40,1,Sad,964.5,1,High,339.699999999255
35,1,0.75,E,1,Low,1,Sad,80,1,Sad,582.699999999255,1,High,399.5
36,1,0.75,E,1,Low,1,Sad,60,1,Sad,558.89999999851,1,High,439.89999999851
37,1,0.75,E,0,High,0,Happy,40,1,Sad,539.5,1,High,436.5
38,1,0.75,UE,0,High,1,Sad,80,1,Sad,955,1,High,337
39,1,0.75,E,1,Low,1,Sad,60,1,Sad,575.699999999255,1,High,382.5
40,1,0.75,E,0,High,0,Happy,40,1,Sad,495.5,1,High,376.599999997765
41,1,0.75,UE,1,Low,0,Happy,20,0,Happy,742.5,1,High,402.10000000149
42,1,0.75,E,0,High,0,Happy,20,0,Happy,688.199999999255,1,High,283.10000000149
43,1,0.75,E,1,Low,1,Sad,100,1,Sad,585.5,1,High,373.400000002235
44,1,0.75,UE,0,High,1,Sad,80,1,Sad,1084,1,High,326
45,1,0.75,E,1,Low,1,Sad,100,1,Sad,478.79999999702,1,High,394.70000000298
46,1,0.75,E,0,High,0,Happy,0,0,Happy,627.099999997765,1,High,267.099999997765
47,1,0.75,E,1,Low,1,Sad,80,1,Sad,531.70000000298,1,High,313.800000000745
48,1,0.75,UE,1,Low,0,Happy,20,0,Happy,419.10000000149,1,High,268.5
49,1,0.75,E,0,High,0,Happy,0,0,Happy,360.699999999255,1,High,244.20000000298
50,1,0.75,E,1,Low,1,Sad,80,1,Sad,370.89999999851,1,High,316.800000000745
51,1,0.75,E,0,High,0,Happy,20,0,Happy,726,1,High,361.89999999851
52,1,0.75,UE,0,High,1,Sad,60,1,Sad,1614,0,Low,666
53,1,0.75,UE,1,Low,0,Happy,0,0,Happy,995.70000000298,1,High,535.099999997765
54,1,0.75,E,1,Low,1,Sad,100,1,Sad,635.800000000745,1,High,355.39999999851
55,1,0.75,E,1,Low,1,Sad,100,1,Sad,409.199999999255,1,High,734.89999999851
56,1,0.75,E,0,High,0,Happy,0,0,Happy,570.60000000149,1,High,619.599999997765
57,1,0.75,E,1,Low,1,Sad,100,1,Sad,667.39999999851,1,High,466.79999999702
58,1,0.75,UE,0,High,1,Sad,100,1,Sad,759.199999999255,1,High,361.300000000745
59,1,0.75,E,1,Low,1,Sad,80,1,Sad,497.300000000745,1,High,380.5
60,1,0.75,E,0,High,0,Happy,20,0,Happy,788.800000000745,1,High,280.29999999702
61,1,0.75,UE,1,Low,0,Happy,40,1,Sad,811.699999999255,1,High,453
62,1,0.75,UE,1,Low,0,Happy,20,0,Happy,897.10000000149,1,High,400.800000000745
63,1,0.75,E,0,High,0,Happy,20,0,Happy,535.800000000745,1,High,250.39999999851
64,1,0.75,E,1,Low,1,Sad,60,1,Sad,406.60000000149,1,High,351.699999999255
65,1,0.75,E,0,High,0,Happy,40,1,Sad,504.099999997765,1,High,317.900000002235
66,1,0.75,E,1,Low,1,Sad,80,1,Sad,386.39999999851,1,High,309.10000000149
67,1,0.75,UE,1,Low,0,Happy,0,0,Happy,893.300000000745,1,High,460.599999997765
68,1,0.75,E,0,High,0,Happy,40,1,Sad,443.099999997765,1,High,428.800000000745
69,1,0.75,E,0,High,0,Happy,40,1,Sad,534.89999999851,1,High,769.60000000149
70,1,0.75,E,0,High,0,Happy,0,0,Happy,567.29999999702,1,High,432
71,1,0.75,UE,1,Low,0,Happy,0,0,Happy,511.70000000298,1,High,638.30000000447
72,1,0.75,E,1,Low,1,Sad,60,1,Sad,333.5,1,High,399.5
73,1,0.75,E,0,High,0,Happy,40,1,Sad,332.20000000298,1,High,254.19999999553
74,1,0.75,E,1,Low,1,Sad,100,1,Sad,373.40000000596,1,High,221.70000000298
75,1,0.75,E,1,Low,1,Sad,100,1,Sad,348,1,High,316.79999999702
76,1,0.75,E,0,High,0,Happy,20,0,Happy,860.60000000149,1,High,478.39999999851
77,1,0.75,UE,0,High,1,Sad,60,1,Sad,316.20000000298,1,High,666.29999999702
78,1,0.75,E,0,High,0,Happy,0,0,Happy,510.30000000447,1,High,270.90000000596
79,1,0.75,E,0,High,0,Happy,40,1,Sad,529.29999999702,1,High,474.89999999851
80,1,0.75,UE,0,High,1,Sad,60,1,Sad,274.5,1,High,260.39999999851
81,1,0.75,E,0,High,0,Happy,40,1,Sad,404.89999999851,1,High,245.10000000149
82,1,0.75,UE,0,High,1,Sad,80,1,Sad,539,1,High,234.5
83,1,0.75,E,0,High,0,Happy,0,0,Happy,419.60000000149,1,High,271.09999999404
84,1,0.75,E,0,High,0,Happy,20,0,Happy,623.39999999851,1,High,215.60000000149
85,1,0.75,E,1,Low,1,Sad,100,1,Sad,326.10000000149,1,High,255.20000000298
86,1,0.75,E,1,Low,1,Sad,100,1,Sad,559.20000000298,1,High,294.30000000447
87,1,0.75,UE,1,Low,0,Happy,40,1,Sad,363.89999999851,1,High,242.09999999404
88,1,0.75,E,1,Low,1,Sad,80,1,Sad,499.40000000596,1,High,231.70000000298
89,1,0.75,E,0,High,0,Happy,0,0,Happy,488.89999999851,1,High,790.59999999404
90,1,0.75,UE,0,High,1,Sad,60,1,Sad,475.29999999702,1,High,228.20000000298
91,1,0.75,E,1,Low,1,Sad,60,1,Sad,327.5,1,High,306.60000000149
92,1,0.75,E,1,Low,1,Sad,80,1,Sad,446.10000000149,1,High,236.20000000298
93,1,0.75,E,0,High,0,Happy,20,0,Happy,518.5,1,High,637.5
94,1,0.75,E,0,High,0,Happy,20,0,Happy,534,1,High,505
95,1,0.75,UE,1,Low,0,Happy,40,1,Sad,620,1,High,491.39999999851
96,1,0.75,E,1,Low,1,Sad,80,1,Sad,479.39999999851,1,High,231.89999999851
97,2,0.25,E,1,Low,0,Happy,0,0,Happy,500.5,1,High,399.70000000298
98,2,0.25,UE,1,Low,1,Sad,80,1,Sad,320.29999999702,1,High,674.89999999851
99,2,0.25,E,1,Low,0,Happy,40,1,Sad,457.19999999553,1,High,234.29999999702
100,2,0.25,E,1,Low,0,Happy,40,1,Sad,275.90000000596,1,High,283.70000000298
101,2,0.25,E,0,High,1,Sad,60,1,Sad,417.19999999553,1,High,273.5
102,2,0.25,E,1,Low,0,Happy,20,0,Happy,1099.79999999702,0,Low,538.60000000149
103,2,0.25,E,0,High,1,Sad,80,1,Sad,412,1,High,407
104,2,0.25,UE,1,Low,1,Sad,100,1,Sad,288,1,High,427.39999999851
105,2,0.25,E,1,Low,0,Happy,20,1,Sad,1657.59999999404,0,Low,922.39999999851
106,2,0.25,UE,1,Low,1,Sad,60,1,Sad,426,1,High,575
107,2,0.25,UE,0,High,0,Happy,20,0,Happy,759.70000000298,1,High,275.60000000149
108,2,0.25,E,0,High,1,Sad,100,1,Sad,348.5,1,High,321.40000000596
109,2,0.25,E,1,Low,0,Happy,40,1,Sad,1261,1,High,399.89999999851
110,2,0.25,E,0,High,1,Sad,80,1,Sad,596.5,1,High,415.29999999702
111,2,0.25,E,0,High,1,Sad,60,1,Sad,428.5,1,High,405.60000000149
112,2,0.25,E,1,Low,0,Happy,0,0,Happy,811.60000000149,1,High,337.20000000298
113,2,0.25,UE,0,High,0,Happy,40,1,Sad,312.30000000447,1,High,355.69999999553
114,2,0.25,E,0,High,1,Sad,80,1,Sad,321.70000000298,1,High,274.09999999404
115,2,0.25,E,0,High,1,Sad,100,1,Sad,495,1,High,268.5
116,2,0.25,E,0,High,1,Sad,60,1,Sad,409.29999999702,1,High,229.39999999851
117,2,0.25,E,1,Low,0,Happy,0,0,Happy,752.70000000298,1,High,733.20000000298
118,2,0.25,E,1,Low,0,Happy,20,0,Happy,472.20000000298,1,High,651.60000000149
119,2,0.25,UE,0,High,0,Happy,0,0,Happy,347.70000000298,1,High,269.10000000149
120,2,0.25,E,0,High,1,Sad,100,1,Sad,465.60000000149,1,High,338.80000000447
121,3,0.75,E,0,High,0,Happy,0,0,Happy,536.80000000447,1,High,238.79999999702
122,3,0.75,E,0,High,0,Happy,40,1,Sad,1215.20000000298,0,Low,930.29999999702
123,3,0.75,E,0,High,0,Happy,0,0,Happy,662.69999999553,1,High,387.5
124,3,0.75,E,1,Low,1,Sad,80,1,Sad,476.29999999702,1,High,369.80000000447
125,3,0.75,E,1,Low,1,Sad,60,1,Sad,378.59999999404,1,High,304.70000000298
126,3,0.75,UE,0,High,1,Sad,100,1,Sad,998.5,1,High,368.89999999851
127,3,0.75,E,0,High,0,Happy,20,0,Happy,848.89999999851,1,High,287
128,3,0.75,E,0,High,0,Happy,40,1,Sad,499.39999999851,1,High,389.20000000298
129,3,0.75,UE,1,Low,0,Happy,20,0,Happy,584,1,High,303.60000000149
130,3,0.75,E,1,Low,1,Sad,100,1,Sad,481.09999999404,1,High,269.20000000298
131,3,0.75,E,0,High,0,Happy,40,1,Sad,859,1,High,567.09999999404
132,3,0.75,UE,1,Low,0,Happy,40,1,Sad,469.20000000298,1,High,925.69999999553
133,3,0.75,UE,0,High,1,Sad,60,1,Sad,353.29999999702,1,High,667.20000000298
134,3,0.75,E,1,Low,1,Sad,80,1,Sad,452,1,High,1253.69999999553
135,3,0.75,E,1,Low,1,Sad,60,1,Sad,382.30000000447,1,High,470
136,3,0.75,E,1,Low,1,Sad,60,1,Sad,408.89999999851,1,High,865.80000000447
137,3,0.75,E,1,Low,1,Sad,100,1,Sad,438.89999999851,1,High,430
138,3,0.75,UE,0,High,1,Sad,80,1,Sad,471.39999999851,1,High,541.5
139,3,0.75,E,0,High,0,Happy,20,0,Happy,944.39999999851,1,High,491.60000000149
140,3,0.75,E,1,Low,1,Sad,80,1,Sad,528.89999999851,1,High,806.89999999851
141,3,0.75,E,1,Low,1,Sad,100,1,Sad,443.19999999553,1,High,426.60000000149
142,3,0.75,E,0,High,0,Happy,0,0,Happy,728.89999999851,1,High,350.5
143,3,0.75,UE,1,Low,0,Happy,0,0,Happy,521.39999999851,1,High,473.5
144,3,0.75,E,0,High,0,Happy,20,0,Happy,388.80000000447,1,High,344.60000000149
145,4,0.25,E,1,Low,0,Happy,0,0,Happy,478.39999999851,1,High,419.60000000149
146,4,0.25,E,1,Low,0,Happy,20,0,Happy,369.69999999553,1,High,438.20000000298
147,4,0.25,UE,1,Low,1,Sad,80,1,Sad,324.29999999702,1,High,688.5
148,4,0.25,UE,0,High,0,Happy,40,1,Sad,391.90000000596,1,High,464.40000000596
149,4,0.25,E,0,High,1,Sad,80,1,Sad,360.10000000149,1,High,776.29999999702
150,4,0.25,E,0,High,1,Sad,60,1,Sad,243.59999999404,1,High,591.80000000447
151,4,0.25,E,1,Low,0,Happy,0,0,Happy,763,1,High,302.89999999851
152,4,0.25,E,0,High,1,Sad,80,1,Sad,368.5,1,High,391
153,4,0.25,E,1,Low,0,Happy,40,1,Sad,431.90000000596,1,High,479.40000000596
154,4,0.25,E,0,High,1,Sad,100,1,Sad,535.29999999702,1,High,416.70000000298
155,4,0.25,E,0,High,1,Sad,100,1,Sad,356.89999999851,1,High,383.20000000298
156,4,0.25,E,0,High,1,Sad,80,1,Sad,266.20000000298,1,High,410.19999999553
157,4,0.25,E,1,Low,0,Happy,20,0,Happy,736.29999999702,1,High,281.30000000447
158,4,0.25,UE,0,High,0,Happy,20,0,Happy,664.10000000149,1,High,288
159,4,0.25,E,0,High,1,Sad,60,1,Sad,500.30000000447,1,High,771.5
160,4,0.25,E,1,Low,0,Happy,40,1,Sad,502,1,High,392.69999999553
161,4,0.25,E,1,Low,0,Happy,0,0,Happy,750.10000000149,1,High,355.30000000447
162,4,0.25,UE,1,Low,1,Sad,60,1,Sad,364.20000000298,1,High,347.79999999702
163,4,0.25,E,0,High,1,Sad,100,1,Sad,401.79999999702,1,High,871.60000000149
164,4,0.25,E,0,High,1,Sad,60,1,Sad,250.20000000298,1,High,375.79999999702
165,4,0.25,UE,0,High,0,Happy,0,0,Happy,634.39999999851,1,High,278.89999999851
166,4,0.25,E,1,Low,0,Happy,40,1,Sad,339.90000000596,1,High,702.79999999702
167,4,0.25,E,1,Low,0,Happy,20,0,Happy,708.20000000298,1,High,377.29999999702
168,4,0.25,UE,1,Low,1,Sad,100,1,Sad,341.19999999553,1,High,364.10000000149
169,5,0.75,E,0,High,0,Happy,20,0,Happy,2046,0,Low,1018.30000000447
170,5,0.75,UE,0,High,1,Sad,60,1,Sad,481.89999999851,1,High,460
171,5,0.75,E,0,High,0,Happy,0,0,Happy,425.40000000596,1,High,416.10000000149
172,5,0.75,E,0,High,0,Happy,40,1,Sad,514.80000000447,1,High,429.90000000596
173,5,0.75,E,1,Low,1,Sad,60,1,Sad,382.79999999702,1,High,882.29999999702
174,5,0.75,E,1,Low,1,Sad,80,1,Sad,1075.10000000149,1,High,859.30000000447
175,5,0.75,E,1,Low,1,Sad,60,1,Sad,395.5,1,High,342.39999999851
176,5,0.75,E,0,High,0,Happy,20,1,Sad,535.29999999702,0,Low,1687.20000000298
177,5,0.75,E,1,Low,1,Sad,100,1,Sad,384.60000000149,1,High,548.89999999851
178,5,0.75,UE,1,Low,0,Happy,0,0,Happy,808.59999999404,1,High,487.80000000447
179,5,0.75,E,0,High,0,Happy,20,1,Sad,1133.20000000298,0,Low,1068
180,5,0.75,UE,1,Low,0,Happy,40,1,Sad,793.5,1,High,857.69999999553
181,5,0.75,E,1,Low,1,Sad,60,1,Sad,485.19999999553,1,High,490.19999999553
182,5,0.75,E,0,High,0,Happy,40,1,Sad,498.60000000149,1,High,1180.79999999702
183,5,0.75,E,1,Low,1,Sad,80,1,Sad,352.10000000149,1,High,363.29999999702
184,5,0.75,E,1,Low,1,Sad,80,1,Sad,278.39999999851,1,High,388.79999999702
185,5,0.75,UE,0,High,1,Sad,80,1,Sad,298.59999999404,1,High,329.10000000149
186,5,0.75,UE,0,High,1,Sad,100,1,Sad,282.59999999404,1,High,394.39999999851
187,5,0.75,E,0,High,0,Happy,0,0,Happy,651.89999999851,1,High,274.80000000447
188,5,0.75,E,1,Low,1,Sad,100,1,Sad,252.60000000149,1,High,321
189,5,0.75,UE,1,Low,0,Happy,20,0,Happy,394.30000000447,1,High,340.5
190,5,0.75,E,0,High,0,Happy,0,0,Happy,619.89999999851,1,High,316.39999999851
191,5,0.75,E,1,Low,1,Sad,100,1,Sad,427.90000000596,1,High,525.5
192,5,0.75,E,0,High,0,Happy,40,0,Happy,1038.5,0,Low,482.10000000149
