Trial_N,Block_N,Contingency,Expectedness,Cue_idx,Cue_name,Outcome_idx,Outcome_name,Outcome_p_sad,Response_idx,Response_name,Response_RT,Confidence_idx,Confidence_name,Confidence_RT
1,1,0.75,E,1,Low,1,Sad,80,1,Sad,544,1,High,455
2,1,0.75,E,1,Low,1,Sad,100,1,Sad,405,1,High,215
3,1,0.75,E,1,Low,1,Sad,80,1,Sad,576,0,Low,440
4,1,0.75,E,0,High,0,Happy,20,0,Happy,394,1,High,111
5,1,0.75,E,0,High,0,Happy,0,0,Happy,249,1,High,144
6,1,0.75,UE,0,High,1,Sad,100,1,Sad,594,1,High,305
7,1,0.75,E,1,Low,1,Sad,60,1,Sad,666,0,Low,530
8,1,0.75,E,0,High,0,Happy,20,0,Happy,435,1,High,112
9,1,0.75,UE,1,Low,0,Happy,20,0,Happy,483,1,High,122
10,1,0.75,E,1,Low,1,Sad,100,1,Sad,598,1,High,182
11,1,0.75,E,1,Low,1,Sad,60,1,Sad,1395,0,Low,302
12,1,0.75,E,0,High,0,Happy,40,0,Happy,1221,0,Low,326
13,1,0.75,E,1,Low,1,Sad,60,1,Sad,953,0,Low,456
14,1,0.75,E,1,Low,1,Sad,60,1,Sad,553,1,High,184
15,1,0.75,E,1,Low,1,Sad,60,1,Sad,631,1,High,394
16,1,0.75,UE,0,High,1,Sad,80,1,Sad,472,1,High,154
17,1,0.75,E,0,High,0,Happy,0,0,Happy,405,1,High,113
18,1,0.75,E,0,High,0,Happy,20,0,Happy,542,1,High,111
19,1,0.75,E,1,Low,1,Sad,80,1,Sad,421,1,High,167
20,1,0.75,E,0,High,0,Happy,0,0,Happy,296,1,High,134
21,1,0.75,UE,0,High,1,Sad,100,1,Sad,484,1,High,141
22,1,0.75,E,0,High,0,Happy,20,0,Happy,484,1,High,106
23,1,0.75,E,1,Low,1,Sad,60,1,Sad,1254,0,Low,338
24,1,0.75,E,0,High,0,Happy,40,0,Happy,426,0,Low,567
25,1,0.75,UE,1,Low,0,Happy,0,0,Happy,480,1,High,104
26,1,0.75,E,1,Low,1,Sad,80,1,Sad,442,1,High,158
27,1,0.75,E,0,High,0,Happy,0,0,Happy,508,1,High,115
28,1,0.75,E,0,High,0,Happy,0,0,Happy,227,1,High,97
29,1,0.75,E,1,Low,1,Sad,60,1,Sad,1229,0,Low,1423
30,1,0.75,E,1,Low,1,Sad,100,1,Sad,638,1,High,126
31,1,0.75,UE,1,Low,0,Happy,40,0,Happy,636,0,Low,255
32,1,0.75,UE,0,High,1,Sad,100,1,Sad,437,1,High,151
33,1,0.75,E,0,High,0,Happy,40,0,Happy,466,0,Low,720
34,1,0.75,E,0,High,0,Happy,40,0,Happy,777,0,Low,354
35,1,0.75,E,1,Low,1,Sad,80,1,Sad,528,1,High,220
36,1,0.75,E,1,Low,1,Sad,60,1,Sad,531,1,High,256
37,1,0.75,E,0,High,0,Happy,40,0,Happy,647,0,Low,331
38,1,0.75,UE,0,High,1,Sad,80,1,Sad,741,1,High,263
39,1,0.75,E,1,Low,1,Sad,60,1,Sad,1228,0,Low,459
40,1,0.75,E,0,High,0,Happy,40,0,Happy,959,0,Low,297
41,1,0.75,UE,1,Low,0,Happy,20,0,Happy,485,1,High,118
42,1,0.75,E,0,High,0,Happy,20,0,Happy,242,1,High,112
43,1,0.75,E,1,Low,1,Sad,100,1,Sad,712,1,High,372
44,1,0.75,UE,0,High,1,Sad,80,1,Sad,385,1,High,150
45,1,0.75,E,1,Low,1,Sad,100,1,Sad,343,1,High,146
46,1,0.75,E,0,High,0,Happy,0,0,Happy,388,1,High,109
47,1,0.75,E,1,Low,1,Sad,80,1,Sad,423,1,High,139
48,1,0.75,UE,1,Low,0,Happy,20,0,Happy,500,1,High,107
49,1,0.75,E,0,High,0,Happy,0,0,Happy,425,1,High,113
50,1,0.75,E,1,Low,1,Sad,80,1,Sad,512,1,High,135
51,1,0.75,E,0,High,0,Happy,20,0,Happy,268,1,High,127
52,1,0.75,UE,0,High,1,Sad,60,1,Sad,612,1,High,145
53,1,0.75,UE,1,Low,0,Happy,0,0,Happy,306,1,High,127
54,1,0.75,E,1,Low,1,Sad,100,1,Sad,657,1,High,128
55,1,0.75,E,1,Low,1,Sad,100,1,Sad,414,1,High,126
56,1,0.75,E,0,High,0,Happy,0,0,Happy,386,1,High,133
57,1,0.75,E,1,Low,1,Sad,100,1,Sad,423,1,High,224
58,1,0.75,UE,0,High,1,Sad,100,1,Sad,369,1,High,132
59,1,0.75,E,1,Low,1,Sad,80,1,Sad,345,1,High,146
60,1,0.75,E,0,High,0,Happy,20,0,Happy,254,1,High,133
61,1,0.75,UE,1,Low,0,Happy,40,0,Happy,857,0,Low,336
62,1,0.75,UE,1,Low,0,Happy,20,0,Happy,348,1,High,87
63,1,0.75,E,0,High,0,Happy,20,0,Happy,704,1,High,144
64,1,0.75,E,1,Low,1,Sad,60,1,Sad,511,1,High,609
65,1,0.75,E,0,High,0,Happy,40,0,Happy,1740,0,Low,567
66,1,0.75,E,1,Low,1,Sad,80,1,Sad,504,1,High,62
67,1,0.75,UE,1,Low,0,Happy,0,0,Happy,365,1,High,107
68,1,0.75,E,0,High,0,Happy,40,0,Happy,1648,0,Low,275
69,1,0.75,E,0,High,0,Happy,40,0,Happy,1356,0,Low,196
70,1,0.75,E,0,High,0,Happy,0,0,Happy,517,1,High,75
71,1,0.75,UE,1,Low,0,Happy,0,0,Happy,316,1,High,94
72,1,0.75,E,1,Low,1,Sad,60,1,Sad,327,1,High,152
73,1,0.75,E,0,High,0,Happy,40,0,Happy,1117,0,Low,333
74,1,0.75,E,1,Low,1,Sad,100,1,Sad,716,1,High,135
75,1,0.75,E,1,Low,1,Sad,100,1,Sad,347,1,High,141
76,1,0.75,E,0,High,0,Happy,20,0,Happy,325,1,High,179
77,1,0.75,UE,0,High,1,Sad,60,1,Sad,1082,0,Low,410
78,1,0.75,E,0,High,0,Happy,0,0,Happy,557,1,High,101
79,1,0.75,E,0,High,0,Happy,40,0,Happy,1182,1,High,392
80,1,0.75,UE,0,High,1,Sad,60,1,Sad,1716,0,Low,170
81,1,0.75,E,0,High,0,Happy,40,1,Sad,765,0,Low,257
82,1,0.75,UE,0,High,1,Sad,80,1,Sad,700,1,High,113
83,1,0.75,E,0,High,0,Happy,0,0,Happy,439,1,High,80
84,1,0.75,E,0,High,0,Happy,20,0,Happy,1080,1,High,79
85,1,0.75,E,1,Low,1,Sad,100,1,Sad,354,1,High,100
86,1,0.75,E,1,Low,1,Sad,100,1,Sad,304,1,High,130
87,1,0.75,UE,1,Low,0,Happy,40,0,Happy,1073,0,Low,279
88,1,0.75,E,1,Low,1,Sad,80,1,Sad,693,1,High,126
89,1,0.75,E,0,High,0,Happy,0,0,Happy,486,1,High,120
90,1,0.75,UE,0,High,1,Sad,60,1,Sad,1301,0,Low,355
91,1,0.75,E,1,Low,1,Sad,60,1,Sad,1561,0,Low,154
92,1,0.75,E,1,Low,1,Sad,80,1,Sad,567,1,High,107
93,1,0.75,E,0,High,0,Happy,20,0,Happy,278,1,High,75
94,1,0.75,E,0,High,0,Happy,20,0,Happy,369,1,High,98
95,1,0.75,UE,1,Low,0,Happy,40,0,Happy,992,0,Low,404
96,1,0.75,E,1,Low,1,Sad,80,1,Sad,577,1,High,167
97,2,0.25,E,1,Low,0,Happy,0,0,Happy,347,1,High,108
98,2,0.25,UE,1,Low,1,Sad,80,1,Sad,282,1,High,125
99,2,0.25,E,1,Low,0,Happy,40,1,Sad,971,0,Low,1067
100,2,0.25,E,1,Low,0,Happy,40,1,Sad,1288,0,Low,284
101,2,0.25,E,0,High,1,Sad,60,1,Sad,677,1,High,94
102,2,0.25,E,1,Low,0,Happy,20,0,Happy,730,1,High,61
103,2,0.25,E,0,High,1,Sad,80,1,Sad,375,1,High,120
104,2,0.25,UE,1,Low,1,Sad,100,1,Sad,469,1,High,117
105,2,0.25,E,1,Low,0,Happy,20,0,Happy,531,1,High,106
106,2,0.25,UE,1,Low,1,Sad,60,1,Sad,1337,0,Low,378
107,2,0.25,UE,0,High,0,Happy,20,0,Happy,512,1,High,66
108,2,0.25,E,0,High,1,Sad,100,1,Sad,401,1,High,76
109,2,0.25,E,1,Low,0,Happy,40,0,Happy,342,1,High,93
110,2,0.25,E,0,High,1,Sad,80,1,Sad,284,1,High,114
111,2,0.25,E,0,High,1,Sad,60,0,Happy,1342,0,Low,289
112,2,0.25,E,1,Low,0,Happy,0,0,Happy,426,1,High,88
113,2,0.25,UE,0,High,0,Happy,40,0,Happy,1028,0,Low,209
114,2,0.25,E,0,High,1,Sad,80,1,Sad,504,1,High,60
115,2,0.25,E,0,High,1,Sad,100,1,Sad,322,1,High,133
116,2,0.25,E,0,High,1,Sad,60,1,Sad,1541,0,Low,230
117,2,0.25,E,1,Low,0,Happy,0,0,Happy,577,1,High,99
118,2,0.25,E,1,Low,0,Happy,20,0,Happy,290,1,High,100
119,2,0.25,UE,0,High,0,Happy,0,0,Happy,370,1,High,94
120,2,0.25,E,0,High,1,Sad,100,1,Sad,502,1,High,146
121,3,0.75,E,0,High,0,Happy,0,0,Happy,456,1,High,80
122,3,0.75,E,0,High,0,Happy,40,0,Happy,1608,0,Low,314
123,3,0.75,E,0,High,0,Happy,0,0,Happy,429,1,High,93
124,3,0.75,E,1,Low,1,Sad,80,1,Sad,550,1,High,112
125,3,0.75,E,1,Low,1,Sad,60,1,Sad,434,1,High,74
126,3,0.75,UE,0,High,1,Sad,100,1,Sad,475,1,High,122
127,3,0.75,E,0,High,0,Happy,20,0,Happy,400,1,High,81
128,3,0.75,E,0,High,0,Happy,40,0,Happy,445,1,High,136
129,3,0.75,UE,1,Low,0,Happy,20,0,Happy,395,1,High,94
130,3,0.75,E,1,Low,1,Sad,100,1,Sad,430,1,High,91
131,3,0.75,E,0,High,0,Happy,40,0,Happy,1233,0,Low,255
132,3,0.75,UE,1,Low,0,Happy,40,0,Happy,1276,0,Low,240
133,3,0.75,UE,0,High,1,Sad,60,1,Sad,1164,0,Low,251
134,3,0.75,E,1,Low,1,Sad,80,1,Sad,393,1,High,79
135,3,0.75,E,1,Low,1,Sad,60,1,Sad,905,0,Low,332
136,3,0.75,E,1,Low,1,Sad,60,1,Sad,925,1,High,95
137,3,0.75,E,1,Low,1,Sad,100,1,Sad,600,1,High,107
138,3,0.75,UE,0,High,1,Sad,80,1,Sad,377,1,High,94
139,3,0.75,E,0,High,0,Happy,20,0,Happy,537,1,High,96
140,3,0.75,E,1,Low,1,Sad,80,1,Sad,509,1,High,34
141,3,0.75,E,1,Low,1,Sad,100,1,Sad,892,1,High,66
142,3,0.75,E,0,High,0,Happy,0,0,Happy,348,1,High,99
143,3,0.75,UE,1,Low,0,Happy,0,0,Happy,577,1,High,70
144,3,0.75,E,0,High,0,Happy,20,0,Happy,433,1,High,106
145,4,0.25,E,1,Low,0,Happy,0,0,Happy,572,1,High,109
146,4,0.25,E,1,Low,0,Happy,20,0,Happy,458,1,High,123
147,4,0.25,UE,1,Low,1,Sad,80,1,Sad,437,1,High,151
148,4,0.25,UE,0,High,0,Happy,40,0,Happy,1309,0,Low,141
149,4,0.25,E,0,High,1,Sad,80,1,Sad,451,1,High,128
150,4,0.25,E,0,High,1,Sad,60,1,Sad,304,1,High,100
151,4,0.25,E,1,Low,0,Happy,0,0,Happy,426,1,High,112
152,4,0.25,E,0,High,1,Sad,80,1,Sad,606,1,High,53
153,4,0.25,E,1,Low,0,Happy,40,0,Happy,770,0,Low,311
154,4,0.25,E,0,High,1,Sad,100,1,Sad,425,1,High,105
155,4,0.25,E,0,High,1,Sad,100,1,Sad,456,1,High,152
156,4,0.25,E,0,High,1,Sad,80,1,Sad,279,1,High,82
157,4,0.25,E,1,Low,0,Happy,20,0,Happy,368,1,High,88
158,4,0.25,UE,0,High,0,Happy,20,0,Happy,504,1,High,88
159,4,0.25,E,0,High,1,Sad,60,1,Sad,1588,0,Low,271
160,4,0.25,E,1,Low,0,Happy,40,0,Happy,426,1,High,95
161,4,0.25,E,1,Low,0,Happy,0,0,Happy,269,1,High,106
162,4,0.25,UE,1,Low,1,Sad,60,1,Sad,1120,0,Low,376
163,4,0.25,E,0,High,1,Sad,100,1,Sad,398,1,High,86
164,4,0.25,E,0,High,1,Sad,60,1,Sad,841,1,High,476
165,4,0.25,UE,0,High,0,Happy,0,0,Happy,317,1,High,94
166,4,0.25,E,1,Low,0,Happy,40,0,Happy,335,1,High,68
167,4,0.25,E,1,Low,0,Happy,20,0,Happy,357,1,High,75
168,4,0.25,UE,1,Low,1,Sad,100,1,Sad,821,1,High,99
169,5,0.75,E,0,High,0,Happy,20,0,Happy,953,1,High,119
170,5,0.75,UE,0,High,1,Sad,60,1,Sad,1980,0,Low,258
171,5,0.75,E,0,High,0,Happy,0,0,Happy,422,1,High,84
172,5,0.75,E,0,High,0,Happy,40,0,Happy,973,0,Low,298
173,5,0.75,E,1,Low,1,Sad,60,1,Sad,1354,0,Low,206
174,5,0.75,E,1,Low,1,Sad,80,1,Sad,789,1,High,68
175,5,0.75,E,1,Low,1,Sad,60,1,Sad,1256,0,Low,120
176,5,0.75,E,0,High,0,Happy,20,0,Happy,400,1,High,80
177,5,0.75,E,1,Low,1,Sad,100,1,Sad,402,1,High,75
178,5,0.75,UE,1,Low,0,Happy,0,0,Happy,359,1,High,104
179,5,0.75,E,0,High,0,Happy,20,0,Happy,337,1,High,99
180,5,0.75,UE,1,Low,0,Happy,40,0,Happy,409,1,High,87
181,5,0.75,E,1,Low,1,Sad,60,1,Sad,508,1,High,88
182,5,0.75,E,0,High,0,Happy,40,0,Happy,1064,0,Low,252
183,5,0.75,E,1,Low,1,Sad,80,1,Sad,561,1,High,102
184,5,0.75,E,1,Low,1,Sad,80,1,Sad,350,1,High,100
185,5,0.75,UE,0,High,1,Sad,80,1,Sad,350,1,High,105
186,5,0.75,UE,0,High,1,Sad,100,1,Sad,355,1,High,68
187,5,0.75,E,0,High,0,Happy,0,0,Happy,377,1,High,75
188,5,0.75,E,1,Low,1,Sad,100,1,Sad,536,1,High,114
189,5,0.75,UE,1,Low,0,Happy,20,0,Happy,464,1,High,95
190,5,0.75,E,0,High,0,Happy,0,0,Happy,443,1,High,132
191,5,0.75,E,1,Low,1,Sad,100,1,Sad,483,1,High,158
192,5,0.75,E,0,High,0,Happy,40,0,Happy,429,1,High,102
