Trial_N,Block_N,Contingency,Expectedness,Cue_idx,Cue_name,Outcome_idx,Outcome_name,Outcome_p_sad,Response_idx,Response_name,Response_RT,Confidence_idx,Confidence_name,Confidence_RT
1,1,0.75,E,1,Low,1,Sad,80,1,Sad,1669.70000004768,0,Low,556.899999856949
2,1,0.75,E,1,Low,1,Sad,100,1,Sad,657.799999952316,1,High,423.800000190735
3,1,0.75,E,1,Low,1,Sad,80,1,Sad,452.299999952316,1,High,388.799999952316
4,1,0.75,E,0,High,0,Happy,20,0,Happy,623.700000047684,1,High,371.299999952316
5,1,0.75,E,0,High,0,Happy,0,0,Happy,428.099999904633,1,High,335.5
6,1,0.75,UE,0,High,1,Sad,100,1,Sad,525.900000095367,1,High,405.399999856949
7,1,0.75,E,1,Low,1,Sad,60,1,Sad,513.400000095367,1,High,370.400000095367
8,1,0.75,E,0,High,0,Happy,20,0,Happy,608.5,1,High,338.900000095367
9,1,0.75,UE,1,Low,0,Happy,20,0,Happy,510.800000190735,1,High,320.700000047684
10,1,0.75,E,1,Low,1,Sad,100,1,Sad,568.799999952316,1,High,312
11,1,0.75,E,1,Low,1,Sad,60,0,Happy,563.299999952316,1,High,330.099999904633
12,1,0.75,E,0,High,0,Happy,40,0,Happy,552.799999952316,1,High,288.699999809265
13,1,0.75,E,1,Low,1,Sad,60,0,Happy,552.900000095367,1,High,442.799999952316
14,1,0.75,E,1,Low,1,Sad,60,0,Happy,572,1,High,289.300000190735
15,1,0.75,E,1,Low,1,Sad,60,1,Sad,597.799999952316,1,High,262.299999952316
16,1,0.75,UE,0,High,1,Sad,80,1,Sad,564.599999904633,1,High,291.699999809265
17,1,0.75,E,0,High,0,Happy,0,0,Happy,534.900000095367,1,High,274.599999904633
18,1,0.75,E,0,High,0,Happy,20,0,Happy,484.799999952316,1,High,268
19,1,0.75,E,1,Low,1,Sad,80,1,Sad,557.899999856949,1,High,282.299999952316
20,1,0.75,E,0,High,0,Happy,0,0,Happy,540.700000047684,1,High,289.900000095367
21,1,0.75,UE,0,High,1,Sad,100,1,Sad,559.600000143051,1,High,305.700000047684
22,1,0.75,E,0,High,0,Happy,20,0,Happy,1132.30000019073,1,High,540.399999856949
23,1,0.75,E,1,Low,1,Sad,60,1,Sad,1149.5,1,High,265.599999904633
24,1,0.75,E,0,High,0,Happy,40,0,Happy,960.5,1,High,283.700000047684
25,1,0.75,UE,1,Low,0,Happy,0,0,Happy,650.700000047684,1,High,282.699999809265
26,1,0.75,E,1,Low,1,Sad,80,1,Sad,584,1,High,289.100000143051
27,1,0.75,E,0,High,0,Happy,0,0,Happy,567.700000047684,1,High,264.900000095367
28,1,0.75,E,0,High,0,Happy,0,0,Happy,565.099999904633,1,High,251.899999856949
29,1,0.75,E,1,Low,1,Sad,60,0,Happy,766.299999952316,1,High,253.700000047684
30,1,0.75,E,1,Low,1,Sad,100,1,Sad,691.800000190735,1,High,279.299999952316
31,1,0.75,UE,1,Low,0,Happy,40,0,Happy,628.599999904633,1,High,266.200000047684
32,1,0.75,UE,0,High,1,Sad,100,1,Sad,547.700000047684,1,High,255.400000095367
33,1,0.75,E,0,High,0,Happy,40,0,Happy,669,1,High,263.5
34,1,0.75,E,0,High,0,Happy,40,0,Happy,1286.5,1,High,250.399999856949
35,1,0.75,E,1,Low,1,Sad,80,1,Sad,594.899999856949,1,High,254.5
36,1,0.75,E,1,Low,1,Sad,60,1,Sad,716.599999904633,1,High,302.399999856949
37,1,0.75,E,0,High,0,Happy,40,1,Sad,612.5,1,High,310.599999904633
38,1,0.75,UE,0,High,1,Sad,80,1,Sad,821.5,1,High,260
39,1,0.75,E,1,Low,1,Sad,60,1,Sad,705.200000047684,1,High,285.5
40,1,0.75,E,0,High,0,Happy,40,0,Happy,607,1,High,306.900000095367
41,1,0.75,UE,1,Low,0,Happy,20,0,Happy,601.700000047684,1,High,253.699999809265
42,1,0.75,E,0,High,0,Happy,20,0,Happy,562.400000095367,1,High,261.100000143051
43,1,0.75,E,1,Low,1,Sad,100,1,Sad,581.5,1,High,285.900000095367
44,1,0.75,UE,0,High,1,Sad,80,1,Sad,569.599999904633,1,High,297
45,1,0.75,E,1,Low,1,Sad,100,1,Sad,816,1,High,243.200000047684
46,1,0.75,E,0,High,0,Happy,0,0,Happy,619,1,High,284.700000047684
47,1,0.75,E,1,Low,1,Sad,80,1,Sad,658.900000095367,1,High,272.900000095367
48,1,0.75,UE,1,Low,0,Happy,20,0,Happy,644.5,1,High,336.200000047684
49,1,0.75,E,0,High,0,Happy,0,0,Happy,585.599999904633,1,High,314.5
50,1,0.75,E,1,Low,1,Sad,80,1,Sad,525.200000047684,1,High,298
51,1,0.75,E,0,High,0,Happy,20,0,Happy,630.200000047684,1,High,317.5
52,1,0.75,UE,0,High,1,Sad,60,1,Sad,666.900000095367,1,High,290.299999952316
53,1,0.75,UE,1,Low,0,Happy,0,0,Happy,595.299999952316,1,High,297.900000095367
54,1,0.75,E,1,Low,1,Sad,100,1,Sad,538.700000047684,1,High,305.299999952316
55,1,0.75,E,1,Low,1,Sad,100,1,Sad,559.299999952316,1,High,270.400000095367
56,1,0.75,E,0,High,0,Happy,0,0,Happy,574.200000047684,1,High,314.700000047684
57,1,0.75,E,1,Low,1,Sad,100,1,Sad,590.700000047684,1,High,293.899999856949
58,1,0.75,UE,0,High,1,Sad,100,1,Sad,602.300000190735,1,High,280.799999952316
59,1,0.75,E,1,Low,1,Sad,80,1,Sad,451.5,1,High,338.5
60,1,0.75,E,0,High,0,Happy,20,0,Happy,556.099999904633,1,High,336.100000143051
61,1,0.75,UE,1,Low,0,Happy,40,0,Happy,771.400000095367,1,High,268.200000047684
62,1,0.75,UE,1,Low,0,Happy,20,0,Happy,630.5,1,High,256.099999904633
63,1,0.75,E,0,High,0,Happy,20,0,Happy,716.899999856949,1,High,285.200000047684
64,1,0.75,E,1,Low,1,Sad,60,0,Happy,2155.90000009537,0,Low,555.899999856949
65,1,0.75,E,0,High,0,Happy,40,0,Happy,932.300000190735,1,High,354.299999952316
66,1,0.75,E,1,Low,1,Sad,80,1,Sad,744.300000190735,1,High,383.299999952316
67,1,0.75,UE,1,Low,0,Happy,0,0,Happy,611.700000047684,1,High,345.299999952316
68,1,0.75,E,0,High,0,Happy,40,0,Happy,615.599999904633,1,High,336.799999952316
69,1,0.75,E,0,High,0,Happy,40,0,Happy,349.5,1,High,325.199999809265
70,1,0.75,E,0,High,0,Happy,0,0,Happy,366.400000095367,1,High,316.700000047684
71,1,0.75,UE,1,Low,0,Happy,0,0,Happy,494.800000190735,1,High,334.400000095367
72,1,0.75,E,1,Low,1,Sad,60,0,Happy,750.899999856949,1,High,282.700000047684
73,1,0.75,E,0,High,0,Happy,40,0,Happy,735.900000095367,1,High,308.099999904633
74,1,0.75,E,1,Low,1,Sad,100,1,Sad,580.600000143051,1,High,322.399999856949
75,1,0.75,E,1,Low,1,Sad,100,1,Sad,406.900000095367,1,High,273
76,1,0.75,E,0,High,0,Happy,20,0,Happy,561,1,High,294.599999904633
77,1,0.75,UE,0,High,1,Sad,60,0,Happy,680.599999904633,1,High,288.899999856949
78,1,0.75,E,0,High,0,Happy,0,0,Happy,504.299999952316,1,High,319.199999809265
79,1,0.75,E,0,High,0,Happy,40,0,Happy,409.200000047684,1,High,282.799999952316
80,1,0.75,UE,0,High,1,Sad,60,0,Happy,480.100000143051,1,High,269.299999952316
81,1,0.75,E,0,High,0,Happy,40,0,Happy,674,1,High,277.799999952316
82,1,0.75,UE,0,High,1,Sad,80,1,Sad,656.299999952316,1,High,314.700000047684
83,1,0.75,E,0,High,0,Happy,0,0,Happy,593.799999952316,1,High,290.399999856949
84,1,0.75,E,0,High,0,Happy,20,0,Happy,578.099999904633,1,High,262.400000095367
85,1,0.75,E,1,Low,1,Sad,100,1,Sad,722.200000047684,1,High,253.199999809265
86,1,0.75,E,1,Low,1,Sad,100,1,Sad,423.100000143051,1,High,266.299999952316
87,1,0.75,UE,1,Low,0,Happy,40,0,Happy,768.600000143051,1,High,276.900000095367
88,1,0.75,E,1,Low,1,Sad,80,1,Sad,671.800000190735,1,High,275.599999904633
89,1,0.75,E,0,High,0,Happy,0,0,Happy,581.399999856949,1,High,308.799999952316
90,1,0.75,UE,0,High,1,Sad,60,1,Sad,1385.20000004768,1,High,293.799999952316
91,1,0.75,E,1,Low,1,Sad,60,1,Sad,503.599999904633,1,High,325
92,1,0.75,E,1,Low,1,Sad,80,1,Sad,562.799999952316,1,High,258.900000095367
93,1,0.75,E,0,High,0,Happy,20,0,Happy,549.900000095367,1,High,300.299999952316
94,1,0.75,E,0,High,0,Happy,20,0,Happy,407.200000047684,1,High,261.099999904633
95,1,0.75,UE,1,Low,0,Happy,40,0,Happy,556.799999952316,1,High,278.5
96,1,0.75,E,1,Low,1,Sad,80,1,Sad,756.100000143051,1,High,271.299999952316
97,2,0.25,E,1,Low,0,Happy,0,0,Happy,599.5,1,High,286.700000047684
98,2,0.25,UE,1,Low,1,Sad,80,1,Sad,516.799999952316,1,High,280.900000095367
99,2,0.25,E,1,Low,0,Happy,40,0,Happy,515.399999856949,1,High,253.099999904633
100,2,0.25,E,1,Low,0,Happy,40,0,Happy,429.200000047684,1,High,273.100000143051
101,2,0.25,E,0,High,1,Sad,60,0,Happy,733.299999952316,1,High,270.799999952316
102,2,0.25,E,1,Low,0,Happy,20,0,Happy,585.899999856949,1,High,283.399999856949
103,2,0.25,E,0,High,1,Sad,80,1,Sad,633.400000095367,1,High,294.599999904633
104,2,0.25,UE,1,Low,1,Sad,100,1,Sad,619,1,High,285.399999856949
105,2,0.25,E,1,Low,0,Happy,20,0,Happy,523.200000047684,1,High,287.599999904633
106,2,0.25,UE,1,Low,1,Sad,60,0,Happy,711.799999952316,1,High,439.299999952316
107,2,0.25,UE,0,High,0,Happy,20,0,Happy,552.5,1,High,304.599999904633
108,2,0.25,E,0,High,1,Sad,100,1,Sad,592.5,1,High,271.400000095367
109,2,0.25,E,1,Low,0,Happy,40,0,Happy,684.900000095367,1,High,320.400000095367
110,2,0.25,E,0,High,1,Sad,80,1,Sad,684,1,High,287.799999952316
111,2,0.25,E,0,High,1,Sad,60,0,Happy,870.299999952316,1,High,275.5
112,2,0.25,E,1,Low,0,Happy,0,0,Happy,675,1,High,299.400000095367
113,2,0.25,UE,0,High,0,Happy,40,0,Happy,600.299999952316,1,High,250.200000047684
114,2,0.25,E,0,High,1,Sad,80,1,Sad,548.799999952316,1,High,301.900000095367
115,2,0.25,E,0,High,1,Sad,100,1,Sad,419.400000095367,1,High,291
116,2,0.25,E,0,High,1,Sad,60,1,Sad,512,1,High,311
117,2,0.25,E,1,Low,0,Happy,0,0,Happy,545.600000143051,1,High,364.799999952316
118,2,0.25,E,1,Low,0,Happy,20,0,Happy,409.900000095367,1,High,292.599999904633
119,2,0.25,UE,0,High,0,Happy,0,0,Happy,591.200000047684,1,High,288.5
120,2,0.25,E,0,High,1,Sad,100,1,Sad,501.299999952316,1,High,315
121,3,0.75,E,0,High,0,Happy,0,0,Happy,2028.29999995232,0,Low,522.299999952316
122,3,0.75,E,0,High,0,Happy,40,0,Happy,2636.29999995232,1,High,309.200000047684
123,3,0.75,E,0,High,0,Happy,0,0,Happy,661.799999952316,1,High,341.400000095367
124,3,0.75,E,1,Low,1,Sad,80,1,Sad,566.899999856949,1,High,354.799999952316
125,3,0.75,E,1,Low,1,Sad,60,1,Sad,514.099999904633,1,High,279.700000047684
126,3,0.75,UE,0,High,1,Sad,100,1,Sad,714.699999809265,1,High,301.5
127,3,0.75,E,0,High,0,Happy,20,0,Happy,613.799999952316,1,High,305.200000047684
128,3,0.75,E,0,High,0,Happy,40,0,Happy,406.800000190735,1,High,277.599999904633
129,3,0.75,UE,1,Low,0,Happy,20,0,Happy,511.5,1,High,329.099999904633
130,3,0.75,E,1,Low,1,Sad,100,1,Sad,693.100000143051,1,High,322.800000190735
131,3,0.75,E,0,High,0,Happy,40,0,Happy,683.700000047684,1,High,301.700000047684
132,3,0.75,UE,1,Low,0,Happy,40,0,Happy,519.099999904633,1,High,309.700000047684
133,3,0.75,UE,0,High,1,Sad,60,1,Sad,716.200000047684,1,High,275.5
134,3,0.75,E,1,Low,1,Sad,80,1,Sad,450.200000047684,1,High,296.5
135,3,0.75,E,1,Low,1,Sad,60,1,Sad,417,1,High,287.899999856949
136,3,0.75,E,1,Low,1,Sad,60,1,Sad,708.099999904633,1,High,381.5
137,3,0.75,E,1,Low,1,Sad,100,1,Sad,450.399999856949,1,High,273.599999904633
138,3,0.75,UE,0,High,1,Sad,80,1,Sad,524.799999952316,1,High,294.299999952316
139,3,0.75,E,0,High,0,Happy,20,0,Happy,589.399999856949,1,High,294.899999856949
140,3,0.75,E,1,Low,1,Sad,80,1,Sad,515.399999856949,1,High,278.099999904633
141,3,0.75,E,1,Low,1,Sad,100,1,Sad,498,1,High,253.300000190735
142,3,0.75,E,0,High,0,Happy,0,0,Happy,450.200000047684,1,High,293.900000095367
143,3,0.75,UE,1,Low,0,Happy,0,0,Happy,532.599999904633,1,High,303.700000047684
144,3,0.75,E,0,High,0,Happy,20,0,Happy,486.799999952316,1,High,272.5
145,4,0.25,E,1,Low,0,Happy,0,0,Happy,532.099999904633,1,High,255.699999809265
146,4,0.25,E,1,Low,0,Happy,20,0,Happy,421.200000047684,1,High,296.799999952316
147,4,0.25,UE,1,Low,1,Sad,80,1,Sad,546.5,1,High,293.5
148,4,0.25,UE,0,High,0,Happy,40,0,Happy,677.799999952316,1,High,297.200000047684
149,4,0.25,E,0,High,1,Sad,80,1,Sad,606.900000095367,1,High,297.399999856949
150,4,0.25,E,0,High,1,Sad,60,1,Sad,543.200000047684,1,High,285.599999904633
151,4,0.25,E,1,Low,0,Happy,0,0,Happy,723.899999856949,1,High,359.599999904633
152,4,0.25,E,0,High,1,Sad,80,1,Sad,543.099999904633,1,High,316.900000095367
153,4,0.25,E,1,Low,0,Happy,40,0,Happy,778.899999856949,1,High,357.700000047684
154,4,0.25,E,0,High,1,Sad,100,1,Sad,603,1,High,305.799999952316
155,4,0.25,E,0,High,1,Sad,100,1,Sad,418.099999904633,1,High,268
156,4,0.25,E,0,High,1,Sad,80,1,Sad,384.300000190735,1,High,301.5
157,4,0.25,E,1,Low,0,Happy,20,0,Happy,389.099999904633,1,High,301.5
158,4,0.25,UE,0,High,0,Happy,20,0,Happy,483.700000047684,1,High,309.299999952316
159,4,0.25,E,0,High,1,Sad,60,1,Sad,618.200000047684,1,High,268.5
160,4,0.25,E,1,Low,0,Happy,40,0,Happy,697.900000095367,1,High,268.599999904633
161,4,0.25,E,1,Low,0,Happy,0,0,Happy,561.299999952316,1,High,282.700000047684
162,4,0.25,UE,1,Low,1,Sad,60,1,Sad,640,1,High,282.599999904633
163,4,0.25,E,0,High,1,Sad,100,1,Sad,488.700000047684,1,High,261.599999904633
164,4,0.25,E,0,High,1,Sad,60,1,Sad,584.299999952316,1,High,255.399999856949
165,4,0.25,UE,0,High,0,Happy,0,0,Happy,567.400000095367,1,High,305.300000190735
166,4,0.25,E,1,Low,0,Happy,40,0,Happy,613.899999856949,1,High,316.5
167,4,0.25,E,1,Low,0,Happy,20,0,Happy,508.599999904633,1,High,279
168,4,0.25,UE,1,Low,1,Sad,100,1,Sad,601,1,High,279.100000143051
169,5,0.75,E,0,High,0,Happy,20,0,Happy,552.800000190735,1,High,302.5
170,5,0.75,UE,0,High,1,Sad,60,1,Sad,687.700000047684,1,High,269.399999856949
171,5,0.75,E,0,High,0,Happy,0,0,Happy,599.099999904633,1,High,250.5
172,5,0.75,E,0,High,0,Happy,40,0,Happy,560,1,High,321.699999809265
173,5,0.75,E,1,Low,1,Sad,60,1,Sad,603.799999952316,1,High,301.799999952316
174,5,0.75,E,1,Low,1,Sad,80,1,Sad,687.700000047684,1,High,307.5
175,5,0.75,E,1,Low,1,Sad,60,1,Sad,513.800000190735,1,High,300.299999952316
176,5,0.75,E,0,High,0,Happy,20,0,Happy,616.899999856949,1,High,319.600000143051
177,5,0.75,E,1,Low,1,Sad,100,1,Sad,633.299999952316,1,High,295.400000095367
178,5,0.75,UE,1,Low,0,Happy,0,0,Happy,600.799999952316,1,High,285.599999904633
179,5,0.75,E,0,High,0,Happy,20,0,Happy,568.399999856949,1,High,338.599999904633
180,5,0.75,UE,1,Low,0,Happy,40,0,Happy,492.5,1,High,281.900000095367
181,5,0.75,E,1,Low,1,Sad,60,1,Sad,610.100000143051,1,High,309.699999809265
182,5,0.75,E,0,High,0,Happy,40,1,Sad,857.400000095367,1,High,292.899999856949
183,5,0.75,E,1,Low,1,Sad,80,1,Sad,524.400000095367,1,High,327.200000047684
184,5,0.75,E,1,Low,1,Sad,80,1,Sad,443.900000095367,1,High,268.899999856949
185,5,0.75,UE,0,High,1,Sad,80,1,Sad,489.900000095367,1,High,303
186,5,0.75,UE,0,High,1,Sad,100,1,Sad,424.100000143051,1,High,273.299999952316
187,5,0.75,E,0,High,0,Happy,0,0,Happy,574.400000095367,1,High,299
188,5,0.75,E,1,Low,1,Sad,100,1,Sad,733.599999904633,1,High,308.099999904633
189,5,0.75,UE,1,Low,0,Happy,20,0,Happy,602.099999904633,1,High,298.799999952316
190,5,0.75,E,0,High,0,Happy,0,0,Happy,538.5,1,High,299.200000047684
191,5,0.75,E,1,Low,1,Sad,100,1,Sad,505.900000095367,1,High,342.700000047684
192,5,0.75,E,0,High,0,Happy,40,0,Happy,603.799999952316,1,High,311.700000047684
