Trial_N,Block_N,Contingency,Expectedness,Cue_idx,Cue_name,Outcome_idx,Outcome_name,Outcome_p_sad,Response_idx,Response_name,Response_RT,Confidence_idx,Confidence_name,Confidence_RT
1,1,0.75,E,1,Low,1,Sad,80,1,Sad,1281.19999998808,0,Low,386.099999964237
2,1,0.75,E,1,Low,1,Sad,100,1,Sad,430.400000035763,1,High,186.200000047684
3,1,0.75,E,1,Low,1,Sad,80,1,Sad,433.299999952316,1,High,114.899999976158
4,1,0.75,E,0,High,0,Happy,20,0,Happy,535.300000011921,1,High,370.799999952316
5,1,0.75,E,0,High,0,Happy,0,0,Happy,409.800000011921,1,High,65.1999999880791
6,1,0.75,UE,0,High,1,Sad,100,1,Sad,384,1,High,145.300000011921
7,1,0.75,E,1,Low,1,Sad,60,0,Happy,1103,0,Low,176.599999964237
8,1,0.75,E,0,High,0,Happy,20,0,Happy,393.300000011921,1,High,141.900000035763
9,1,0.75,UE,1,Low,0,Happy,20,0,Happy,468,1,High,144.300000011921
10,1,0.75,E,1,Low,1,Sad,100,1,Sad,665.5,1,High,505.900000035763
11,1,0.75,E,1,Low,1,Sad,60,1,Sad,1869.90000003576,0,Low,168.299999952316
12,1,0.75,E,0,High,0,Happy,40,0,Happy,522.599999964237,0,Low,677.099999964237
13,1,0.75,E,1,Low,1,Sad,60,0,Happy,916.599999964237,0,Low,175.100000023842
14,1,0.75,E,1,Low,1,Sad,60,0,Happy,1896.5,0,Low,421.100000023842
15,1,0.75,E,1,Low,1,Sad,60,1,Sad,1623.69999998808,0,Low,186.299999952316
16,1,0.75,UE,0,High,1,Sad,80,1,Sad,873.5,0,Low,1096.69999998808
17,1,0.75,E,0,High,0,Happy,0,0,Happy,499.099999964237,1,High,156.099999964237
18,1,0.75,E,0,High,0,Happy,20,0,Happy,584.800000011921,1,High,122.800000011921
19,1,0.75,E,1,Low,1,Sad,80,1,Sad,954.200000047684,0,Low,639.800000011921
20,1,0.75,E,0,High,0,Happy,0,0,Happy,449.099999964237,1,High,100.699999988079
21,1,0.75,UE,0,High,1,Sad,100,1,Sad,571.599999964237,1,High,197.600000023842
22,1,0.75,E,0,High,0,Happy,20,0,Happy,713.299999952316,1,High,104.100000023842
23,1,0.75,E,1,Low,1,Sad,60,0,Happy,1178.30000001192,0,Low,258
24,1,0.75,E,0,High,0,Happy,40,0,Happy,938.399999976158,1,High,1044.30000001192
25,1,0.75,UE,1,Low,0,Happy,0,0,Happy,370.5,1,High,90.3000000119209
26,1,0.75,E,1,Low,1,Sad,80,1,Sad,430.800000011921,1,High,160.599999964237
27,1,0.75,E,0,High,0,Happy,0,0,Happy,445.5,1,High,99.8000000119209
28,1,0.75,E,0,High,0,Happy,0,0,Happy,447,1,High,67.5
29,1,0.75,E,1,Low,1,Sad,60,1,Sad,2419.5,0,Low,90.2999999523163
30,1,0.75,E,1,Low,1,Sad,100,1,Sad,550,1,High,93.5
31,1,0.75,UE,1,Low,0,Happy,40,0,Happy,592.900000035763,0,Low,603.700000047684
32,1,0.75,UE,0,High,1,Sad,100,1,Sad,484.800000011921,1,High,99.1999999880791
33,1,0.75,E,0,High,0,Happy,40,0,Happy,1463.89999997616,0,Low,221.199999988079
34,1,0.75,E,0,High,0,Happy,40,0,Happy,1100.40000003576,0,Low,219
35,1,0.75,E,1,Low,1,Sad,80,1,Sad,419.400000035763,1,High,1118.39999997616
36,1,0.75,E,1,Low,1,Sad,60,1,Sad,1325.19999998808,0,Low,279
37,1,0.75,E,0,High,0,Happy,40,0,Happy,1012.5,0,Low,297.300000011921
38,1,0.75,UE,0,High,1,Sad,80,1,Sad,461.5,1,High,598.299999952316
39,1,0.75,E,1,Low,1,Sad,60,0,Happy,1737.09999996424,0,Low,146.700000047684
40,1,0.75,E,0,High,0,Happy,40,0,Happy,1441.90000003576,0,Low,539.399999976158
41,1,0.75,UE,1,Low,0,Happy,20,0,Happy,353.399999976158,1,High,54.8999999761581
42,1,0.75,E,0,High,0,Happy,20,0,Happy,508.5,1,High,48.3000000119209
43,1,0.75,E,1,Low,1,Sad,100,1,Sad,607.300000011921,1,High,86.6999999880791
44,1,0.75,UE,0,High,1,Sad,80,1,Sad,512.5,1,High,56.9000000357628
45,1,0.75,E,1,Low,1,Sad,100,1,Sad,395.399999976158,1,High,46.5999999642372
46,1,0.75,E,0,High,0,Happy,0,0,Happy,577.699999988079,1,High,48.3000000119209
47,1,0.75,E,1,Low,1,Sad,80,1,Sad,577.300000011921,1,High,535.900000035763
48,1,0.75,UE,1,Low,0,Happy,20,0,Happy,646.800000011921,1,High,107.199999988079
49,1,0.75,E,0,High,0,Happy,0,0,Happy,420.099999964237,1,High,67.4000000357628
50,1,0.75,E,1,Low,1,Sad,80,1,Sad,526.300000011921,1,High,1254.59999996424
51,1,0.75,E,0,High,0,Happy,20,0,Happy,487.199999988079,1,High,202.400000035763
52,1,0.75,UE,0,High,1,Sad,60,1,Sad,1341.39999997616,0,Low,298
53,1,0.75,UE,1,Low,0,Happy,0,0,Happy,403.800000011921,1,High,420.800000011921
54,1,0.75,E,1,Low,1,Sad,100,1,Sad,470.199999988079,1,High,176.599999964237
55,1,0.75,E,1,Low,1,Sad,100,1,Sad,833.800000011921,1,High,71.2999999523163
56,1,0.75,E,0,High,0,Happy,0,0,Happy,488,1,High,68.2000000476837
57,1,0.75,E,1,Low,1,Sad,100,1,Sad,521.899999976158,1,High,123.800000011921
58,1,0.75,UE,0,High,1,Sad,100,1,Sad,562.5,1,High,55.8000000119209
59,1,0.75,E,1,Low,1,Sad,80,1,Sad,388.799999952316,1,High,63.3000000119209
60,1,0.75,E,0,High,0,Happy,20,0,Happy,454,1,High,64.1999999880791
61,1,0.75,UE,1,Low,0,Happy,40,0,Happy,520.699999988079,0,Low,470.099999964237
62,1,0.75,UE,1,Low,0,Happy,20,0,Happy,418.5,1,High,142.200000047684
63,1,0.75,E,0,High,0,Happy,20,0,Happy,376.800000011921,1,High,382.900000035763
64,1,0.75,E,1,Low,1,Sad,60,1,Sad,1995.89999997616,0,Low,184.200000047684
65,1,0.75,E,0,High,0,Happy,40,0,Happy,1795,0,Low,536.199999988079
66,1,0.75,E,1,Low,1,Sad,80,1,Sad,499.199999988079,1,High,166.599999964237
67,1,0.75,UE,1,Low,0,Happy,0,0,Happy,358.200000047684,1,High,115.800000011921
68,1,0.75,E,0,High,0,Happy,40,0,Happy,2003.90000003576,0,Low,179.700000047684
69,1,0.75,E,0,High,0,Happy,40,0,Happy,1530.79999995232,0,Low,65.6999999880791
70,1,0.75,E,0,High,0,Happy,0,0,Happy,431,1,High,36.2000000476837
71,1,0.75,UE,1,Low,0,Happy,0,0,Happy,313.600000023842,1,High,36.8999999761581
72,1,0.75,E,1,Low,1,Sad,60,1,Sad,756.300000011921,0,Low,347.799999952316
73,1,0.75,E,0,High,0,Happy,40,0,Happy,1057.30000001192,0,Low,360.399999976158
74,1,0.75,E,1,Low,1,Sad,100,1,Sad,468.100000023842,1,High,129.600000023842
75,1,0.75,E,1,Low,1,Sad,100,1,Sad,453.600000023842,1,High,98.8000000119209
76,1,0.75,E,0,High,0,Happy,20,0,Happy,536.899999976158,1,High,617.5
77,1,0.75,UE,0,High,1,Sad,60,1,Sad,1019,0,Low,192.300000011921
78,1,0.75,E,0,High,0,Happy,0,0,Happy,355.600000023842,1,High,84.5999999642372
79,1,0.75,E,0,High,0,Happy,40,0,Happy,1284.60000002384,0,Low,436.200000047684
80,1,0.75,UE,0,High,1,Sad,60,1,Sad,861.300000011921,0,Low,430.300000011921
81,1,0.75,E,0,High,0,Happy,40,0,Happy,826,0,Low,215
82,1,0.75,UE,0,High,1,Sad,80,1,Sad,681.399999976158,1,High,403.699999988079
83,1,0.75,E,0,High,0,Happy,0,0,Happy,598.899999976158,1,High,131.899999976158
84,1,0.75,E,0,High,0,Happy,20,0,Happy,730,1,High,194
85,1,0.75,E,1,Low,1,Sad,100,1,Sad,486.5,1,High,89.2999999523163
86,1,0.75,E,1,Low,1,Sad,100,1,Sad,449.5,1,High,64.8000000119209
87,1,0.75,UE,1,Low,0,Happy,40,0,Happy,1009.80000001192,0,Low,233.699999988079
88,1,0.75,E,1,Low,1,Sad,80,1,Sad,698.899999976158,0,Low,1107.59999996424
89,1,0.75,E,0,High,0,Happy,0,0,Happy,387.099999964237,1,High,143
90,1,0.75,UE,0,High,1,Sad,60,1,Sad,1328.69999998808,0,Low,53.2000000476837
91,1,0.75,E,1,Low,1,Sad,60,1,Sad,822.899999976158,0,Low,130.5
92,1,0.75,E,1,Low,1,Sad,80,1,Sad,568.600000023842,1,High,512.399999976158
93,1,0.75,E,0,High,0,Happy,20,0,Happy,522.699999988079,0,Low,307
94,1,0.75,E,0,High,0,Happy,20,0,Happy,492.199999988079,1,High,331.700000047684
95,1,0.75,UE,1,Low,0,Happy,40,1,Sad,1695.80000001192,0,Low,122.300000011921
96,1,0.75,E,1,Low,1,Sad,80,1,Sad,483.5,1,High,232.800000011921
97,2,0.25,E,1,Low,0,Happy,0,0,Happy,499.600000023842,1,High,435.700000047684
98,2,0.25,UE,1,Low,1,Sad,80,1,Sad,447.100000023842,1,High,264.699999988079
99,2,0.25,E,1,Low,0,Happy,40,0,Happy,954.799999952316,0,Low,168.800000011921
100,2,0.25,E,1,Low,0,Happy,40,0,Happy,714.199999988079,1,High,142.300000011921
101,2,0.25,E,0,High,1,Sad,60,1,Sad,599,0,Low,257.099999964237
102,2,0.25,E,1,Low,0,Happy,20,0,Happy,497.800000011921,0,Low,346.399999976158
103,2,0.25,E,0,High,1,Sad,80,1,Sad,512.900000035763,1,High,104.800000011921
104,2,0.25,UE,1,Low,1,Sad,100,1,Sad,553,1,High,136.300000011921
105,2,0.25,E,1,Low,0,Happy,20,0,Happy,540.199999988079,1,High,503.100000023842
106,2,0.25,UE,1,Low,1,Sad,60,0,Happy,1690.69999998808,0,Low,15.8000000119209
107,2,0.25,UE,0,High,0,Happy,20,0,Happy,494.699999988079,1,High,143.300000011921
108,2,0.25,E,0,High,1,Sad,100,1,Sad,442.200000047684,1,High,57.1000000238419
109,2,0.25,E,1,Low,0,Happy,40,0,Happy,1040.80000001192,1,High,507.100000023842
110,2,0.25,E,0,High,1,Sad,80,1,Sad,538,1,High,1212
111,2,0.25,E,0,High,1,Sad,60,1,Sad,1797.10000002384,0,Low,56.0999999642372
112,2,0.25,E,1,Low,0,Happy,0,0,Happy,551.800000011921,1,High,94.3999999761581
113,2,0.25,UE,0,High,0,Happy,40,0,Happy,923.299999952316,1,High,223.699999988079
114,2,0.25,E,0,High,1,Sad,80,1,Sad,511.900000035763,1,High,79.1999999880791
115,2,0.25,E,0,High,1,Sad,100,1,Sad,575.300000011921,1,High,65.2000000476837
116,2,0.25,E,0,High,1,Sad,60,0,Happy,1645,0,Low,74.1999999880791
117,2,0.25,E,1,Low,0,Happy,0,0,Happy,447.899999976158,1,High,70.5999999642372
118,2,0.25,E,1,Low,0,Happy,20,0,Happy,408.699999988079,1,High,42.5999999642372
119,2,0.25,UE,0,High,0,Happy,0,0,Happy,292.799999952316,1,High,53
120,2,0.25,E,0,High,1,Sad,100,1,Sad,641,1,High,502.099999964237
121,3,0.75,E,0,High,0,Happy,0,0,Happy,877.600000023842,1,High,52.7999999523163
122,3,0.75,E,0,High,0,Happy,40,0,Happy,1007.19999998808,0,Low,52.5
123,3,0.75,E,0,High,0,Happy,0,0,Happy,337.399999976158,1,High,52.2000000476837
124,3,0.75,E,1,Low,1,Sad,80,1,Sad,594,1,High,74
125,3,0.75,E,1,Low,1,Sad,60,1,Sad,651.800000011921,0,Low,284.200000047684
126,3,0.75,UE,0,High,1,Sad,100,1,Sad,524.100000023842,1,High,63.2000000476837
127,3,0.75,E,0,High,0,Happy,20,0,Happy,513.099999964237,1,High,88.5999999642372
128,3,0.75,E,0,High,0,Happy,40,0,Happy,570.300000011921,1,High,272
129,3,0.75,UE,1,Low,0,Happy,20,0,Happy,399.399999976158,1,High,497.699999988079
130,3,0.75,E,1,Low,1,Sad,100,1,Sad,541.099999964237,1,High,69.1000000238419
131,3,0.75,E,0,High,0,Happy,40,0,Happy,1141.39999997616,0,Low,57.0999999642372
132,3,0.75,UE,1,Low,0,Happy,40,0,Happy,724.200000047684,0,Low,159.799999952316
133,3,0.75,UE,0,High,1,Sad,60,1,Sad,834.300000011921,0,Low,570.699999988079
134,3,0.75,E,1,Low,1,Sad,80,1,Sad,515.199999988079,1,High,129.899999976158
135,3,0.75,E,1,Low,1,Sad,60,1,Sad,690.699999988079,0,Low,313.5
136,3,0.75,E,1,Low,1,Sad,60,1,Sad,1695.5,0,Low,99.8000000119209
137,3,0.75,E,1,Low,1,Sad,100,1,Sad,599.700000047684,1,High,124.899999976158
138,3,0.75,UE,0,High,1,Sad,80,1,Sad,474,1,High,56.5
139,3,0.75,E,0,High,0,Happy,20,0,Happy,465.400000035763,1,High,206.699999988079
140,3,0.75,E,1,Low,1,Sad,80,1,Sad,503,1,High,50.5999999642372
141,3,0.75,E,1,Low,1,Sad,100,1,Sad,467.100000023842,1,High,67.1000000238419
142,3,0.75,E,0,High,0,Happy,0,0,Happy,496.199999988079,1,High,53.5
143,3,0.75,UE,1,Low,0,Happy,0,0,Happy,385.899999976158,1,High,69.3000000119209
144,3,0.75,E,0,High,0,Happy,20,0,Happy,324.599999964237,1,High,62.4000000357628
145,4,0.25,E,1,Low,0,Happy,0,0,Happy,318,1,High,77.3999999761581
146,4,0.25,E,1,Low,0,Happy,20,0,Happy,371.5,1,High,180.899999976158
147,4,0.25,UE,1,Low,1,Sad,80,1,Sad,456.300000011921,1,High,173.100000023842
148,4,0.25,UE,0,High,0,Happy,40,0,Happy,987.799999952316,0,Low,120.199999988079
149,4,0.25,E,0,High,1,Sad,80,1,Sad,659.099999964237,1,High,35.8999999761581
150,4,0.25,E,0,High,1,Sad,60,1,Sad,2034.89999997616,0,Low,10
151,4,0.25,E,1,Low,0,Happy,0,0,Happy,464.5,1,High,46.3000000119209
152,4,0.25,E,0,High,1,Sad,80,1,Sad,1227.29999995232,1,High,14
153,4,0.25,E,1,Low,0,Happy,40,0,Happy,1229.60000002384,0,Low,60.2000000476837
154,4,0.25,E,0,High,1,Sad,100,1,Sad,569.599999964237,1,High,31.8000000119209
155,4,0.25,E,0,High,1,Sad,100,1,Sad,527.399999976158,1,High,9.80000001192093
156,4,0.25,E,0,High,1,Sad,80,1,Sad,540.199999988079,1,High,21
157,4,0.25,E,1,Low,0,Happy,20,0,Happy,936.099999964237,1,High,48.5999999642372
158,4,0.25,UE,0,High,0,Happy,20,0,Happy,1457.30000001192,1,High,697.099999964237
159,4,0.25,E,0,High,1,Sad,60,1,Sad,685.399999976158,0,Low,419.100000023842
160,4,0.25,E,1,Low,0,Happy,40,0,Happy,715.199999988079,0,Low,164.599999964237
161,4,0.25,E,1,Low,0,Happy,0,0,Happy,405.399999976158,1,High,51.8000000119209
162,4,0.25,UE,1,Low,1,Sad,60,1,Sad,1382.20000004768,0,Low,62
163,4,0.25,E,0,High,1,Sad,100,1,Sad,608.199999988079,1,High,63.8999999761581
164,4,0.25,E,0,High,1,Sad,60,1,Sad,759.900000035763,0,Low,362.400000035763
165,4,0.25,UE,0,High,0,Happy,0,0,Happy,414.5,1,High,47.9000000357628
166,4,0.25,E,1,Low,0,Happy,40,0,Happy,950.900000035763,0,Low,69.9000000357628
167,4,0.25,E,1,Low,0,Happy,20,0,Happy,387.400000035763,1,High,67.8000000119209
168,4,0.25,UE,1,Low,1,Sad,100,1,Sad,495.600000023842,1,High,99.9000000357628
169,5,0.75,E,0,High,0,Happy,20,0,Happy,581.699999988079,1,High,145.399999976158
170,5,0.75,UE,0,High,1,Sad,60,1,Sad,1537.30000001192,0,Low,371.599999964237
171,5,0.75,E,0,High,0,Happy,0,0,Happy,409.300000011921,1,High,67.8999999761581
172,5,0.75,E,0,High,0,Happy,40,0,Happy,716.300000011921,0,Low,73
173,5,0.75,E,1,Low,1,Sad,60,1,Sad,967.199999988079,0,Low,83.5999999642372
174,5,0.75,E,1,Low,1,Sad,80,1,Sad,592.699999988079,1,High,183.899999976158
175,5,0.75,E,1,Low,1,Sad,60,1,Sad,913.400000035763,0,Low,218.800000011921
176,5,0.75,E,0,High,0,Happy,20,0,Happy,595.300000011921,1,High,229.699999988079
177,5,0.75,E,1,Low,1,Sad,100,1,Sad,496.600000023842,1,High,47.3999999761581
178,5,0.75,UE,1,Low,0,Happy,0,0,Happy,466.699999988079,1,High,33.3999999761581
179,5,0.75,E,0,High,0,Happy,20,0,Happy,486.700000047684,1,High,53.1999999880791
180,5,0.75,UE,1,Low,0,Happy,40,0,Happy,1691.30000001192,0,Low,59.4000000357628
181,5,0.75,E,1,Low,1,Sad,60,1,Sad,1058.19999998808,0,Low,83.3999999761581
182,5,0.75,E,0,High,0,Happy,40,0,Happy,1334.80000001192,0,Low,68.8000000119209
183,5,0.75,E,1,Low,1,Sad,80,1,Sad,627.300000011921,1,High,52.8999999761581
184,5,0.75,E,1,Low,1,Sad,80,1,Sad,434.599999964237,1,High,11.2000000476837
185,5,0.75,UE,0,High,1,Sad,80,1,Sad,365.099999964237,1,High,34.5
186,5,0.75,UE,0,High,1,Sad,100,1,Sad,411.100000023842,1,High,33
187,5,0.75,E,0,High,0,Happy,0,0,Happy,409.5,1,High,48.1000000238419
188,5,0.75,E,1,Low,1,Sad,100,1,Sad,433.599999964237,1,High,27.1999999880791
189,5,0.75,UE,1,Low,0,Happy,20,0,Happy,640,1,High,130.599999964237
190,5,0.75,E,0,High,0,Happy,0,0,Happy,374,1,High,59
191,5,0.75,E,1,Low,1,Sad,100,1,Sad,448.200000047684,1,High,62.8999999761581
192,5,0.75,E,0,High,0,Happy,40,0,Happy,1244.70000004768,1,High,42.2999999523163
