Trial_N,Block_N,Contingency,Expectedness,Cue_idx,Cue_name,Outcome_idx,Outcome_name,Outcome_p_sad,Response_idx,Response_name,Response_RT,Confidence_idx,Confidence_name,Confidence_RT
1,1,0.75,E,1,Low,1,Sad,80,NaN,,NaN,NaN,,NaN
2,1,0.75,E,1,Low,1,Sad,100,NaN,,NaN,NaN,,NaN
3,1,0.75,E,1,Low,1,Sad,80,1,Sad,625,0,Low,2899.69999999925
4,1,0.75,E,0,High,0,Happy,20,0,Happy,2256.10000000056,1,High,1633.59999999963
5,1,0.75,E,0,High,0,Happy,0,0,Happy,1645.20000000019,1,High,988
6,1,0.75,UE,0,High,1,Sad,100,1,Sad,1326.10000000056,1,High,984.899999999441
7,1,0.75,E,1,Low,1,Sad,60,0,Happy,1898.29999999981,1,High,573.599999999627
8,1,0.75,E,0,High,0,Happy,20,0,Happy,784,1,High,543.099999999627
9,1,0.75,UE,1,Low,0,Happy,20,0,Happy,474.600000000559,1,High,847.099999999627
10,1,0.75,E,1,Low,1,Sad,100,1,Sad,984.899999999441,1,High,314.200000000186
11,1,0.75,E,1,Low,1,Sad,60,1,Sad,811.299999999814,1,High,354.799999999814
12,1,0.75,E,0,High,0,Happy,40,1,Sad,1271.19999999925,1,High,286.399999999441
13,1,0.75,E,1,Low,1,Sad,60,1,Sad,898.600000000559,1,High,347.100000000559
14,1,0.75,E,1,Low,1,Sad,60,1,Sad,1023.80000000075,1,High,287.700000000186
15,1,0.75,E,1,Low,1,Sad,60,1,Sad,914.400000000373,1,High,515.5
16,1,0.75,UE,0,High,1,Sad,80,1,Sad,1574.79999999981,1,High,489.5
17,1,0.75,E,0,High,0,Happy,0,0,Happy,763.599999999627,1,High,540.900000000373
18,1,0.75,E,0,High,0,Happy,20,0,Happy,1500.20000000019,1,High,607.699999999255
19,1,0.75,E,1,Low,1,Sad,80,1,Sad,782.5,1,High,523.799999999814
20,1,0.75,E,0,High,0,Happy,0,0,Happy,743,1,High,555.700000000186
21,1,0.75,UE,0,High,1,Sad,100,1,Sad,703.5,1,High,439.700000000186
22,1,0.75,E,0,High,0,Happy,20,0,Happy,562.5,1,High,614.400000000373
23,1,0.75,E,1,Low,1,Sad,60,1,Sad,448.799999999814,1,High,523.399999999441
24,1,0.75,E,0,High,0,Happy,40,0,Happy,908.299999999814,1,High,389.699999999255
25,1,0.75,UE,1,Low,0,Happy,0,0,Happy,871.899999999441,1,High,413
26,1,0.75,E,1,Low,1,Sad,80,1,Sad,607.700000000186,1,High,467.400000000373
27,1,0.75,E,0,High,0,Happy,0,0,Happy,600.099999999627,1,High,409.599999999627
28,1,0.75,E,0,High,0,Happy,0,0,Happy,584.099999999627,1,High,430.400000000373
29,1,0.75,E,1,Low,1,Sad,60,1,Sad,709.599999999627,1,High,346.900000000373
30,1,0.75,E,1,Low,1,Sad,100,1,Sad,672.199999999255,1,High,349.199999999255
31,1,0.75,UE,1,Low,0,Happy,40,0,Happy,623.799999999814,1,High,373.399999999441
32,1,0.75,UE,0,High,1,Sad,100,1,Sad,597.5,1,High,370.800000000745
33,1,0.75,E,0,High,0,Happy,40,0,Happy,615.5,1,High,382.299999999814
34,1,0.75,E,0,High,0,Happy,40,0,Happy,718.799999999814,1,High,363.799999999814
35,1,0.75,E,1,Low,1,Sad,80,1,Sad,627.799999999814,1,High,358.699999999255
36,1,0.75,E,1,Low,1,Sad,60,1,Sad,569,1,High,337.299999999814
37,1,0.75,E,0,High,0,Happy,40,0,Happy,674,1,High,350
38,1,0.75,UE,0,High,1,Sad,80,1,Sad,538.600000000559,1,High,364.799999999814
39,1,0.75,E,1,Low,1,Sad,60,1,Sad,706.799999999814,1,High,361.799999999814
40,1,0.75,E,0,High,0,Happy,40,0,Happy,643.400000000373,1,High,356.700000000186
41,1,0.75,UE,1,Low,0,Happy,20,0,Happy,587.299999999814,1,High,394.900000000373
42,1,0.75,E,0,High,0,Happy,20,0,Happy,535.599999999627,1,High,396.399999999441
43,1,0.75,E,1,Low,1,Sad,100,1,Sad,602.700000000186,1,High,408.900000000373
44,1,0.75,UE,0,High,1,Sad,80,1,Sad,545,1,High,399.899999999441
45,1,0.75,E,1,Low,1,Sad,100,1,Sad,518,1,High,391.599999999627
46,1,0.75,E,0,High,0,Happy,0,0,Happy,279.299999999814,1,High,482.099999999627
47,1,0.75,E,1,Low,1,Sad,80,1,Sad,480.200000000186,1,High,368.900000000373
48,1,0.75,UE,1,Low,0,Happy,20,0,Happy,633.300000000745,1,High,380.200000000186
49,1,0.75,E,0,High,0,Happy,0,0,Happy,588.200000000186,1,High,382.5
50,1,0.75,E,1,Low,1,Sad,80,1,Sad,567.5,1,High,337
51,1,0.75,E,0,High,0,Happy,20,0,Happy,531.400000000373,1,High,335.599999999627
52,1,0.75,UE,0,High,1,Sad,60,1,Sad,665.200000000186,1,High,279.399999999441
53,1,0.75,UE,1,Low,0,Happy,0,0,Happy,541.799999999814,1,High,401.899999999441
54,1,0.75,E,1,Low,1,Sad,100,1,Sad,561.099999999627,1,High,311.599999999627
55,1,0.75,E,1,Low,1,Sad,100,1,Sad,555.5,1,High,270.200000000186
56,1,0.75,E,0,High,0,Happy,0,0,Happy,507.800000000745,1,High,374.899999999441
57,1,0.75,E,1,Low,1,Sad,100,1,Sad,500.099999999627,1,High,344
58,1,0.75,UE,0,High,1,Sad,100,1,Sad,533.600000000559,1,High,337.299999999814
59,1,0.75,E,1,Low,1,Sad,80,1,Sad,522.700000000186,1,High,331.599999999627
60,1,0.75,E,0,High,0,Happy,20,0,Happy,536.599999999627,1,High,379.900000000373
61,1,0.75,UE,1,Low,0,Happy,40,0,Happy,657.700000000186,1,High,349.100000000559
62,1,0.75,UE,1,Low,0,Happy,20,0,Happy,1572.69999999925,1,,3999.89999999999
63,1,0.75,E,0,High,0,Happy,20,0,Happy,861.599999999627,1,High,1020.29999999981
64,1,0.75,E,1,Low,1,Sad,60,0,Happy,667.700000000186,1,High,342.5
65,1,0.75,E,0,High,0,Happy,40,0,Happy,592.700000000186,1,High,377
66,1,0.75,E,1,Low,1,Sad,80,1,Sad,835.700000000186,1,High,286.599999999627
67,1,0.75,UE,1,Low,0,Happy,0,0,Happy,634.099999999627,1,High,418.200000000186
68,1,0.75,E,0,High,0,Happy,40,0,Happy,682.399999999441,1,High,317
69,1,0.75,E,0,High,0,Happy,40,0,Happy,749.5,1,High,161.399999999441
70,1,0.75,E,0,High,0,Happy,0,0,Happy,767.600000000559,1,High,194.099999999627
71,1,0.75,UE,1,Low,0,Happy,0,0,Happy,513,1,High,183.599999999627
72,1,0.75,E,1,Low,1,Sad,60,1,Sad,208.200000000186,1,High,374.299999999814
73,1,0.75,E,0,High,0,Happy,40,0,Happy,389.299999999814,1,High,380.400000000373
74,1,0.75,E,1,Low,1,Sad,100,1,Sad,584.5,1,High,280.600000000559
75,1,0.75,E,1,Low,1,Sad,100,1,Sad,483,1,High,274.600000000559
76,1,0.75,E,0,High,0,Happy,20,0,Happy,444.299999999814,1,High,278.700000000186
77,1,0.75,UE,0,High,1,Sad,60,1,Sad,618.5,1,High,267.099999999627
78,1,0.75,E,0,High,0,Happy,0,0,Happy,469.099999999627,1,High,269.700000000186
79,1,0.75,E,0,High,0,Happy,40,1,Sad,475.200000000186,1,High,284.200000000186
80,1,0.75,UE,0,High,1,Sad,60,1,Sad,519.299999999814,1,High,276
81,1,0.75,E,0,High,0,Happy,40,1,Sad,813.599999999627,1,High,235.200000000186
82,1,0.75,UE,0,High,1,Sad,80,1,Sad,320.900000000373,1,High,307.299999999814
83,1,0.75,E,0,High,0,Happy,0,0,Happy,449.400000000373,1,High,304.700000000186
84,1,0.75,E,0,High,0,Happy,20,0,Happy,446.600000000559,1,High,305
85,1,0.75,E,1,Low,1,Sad,100,1,Sad,490.899999999441,1,High,296.5
86,1,0.75,E,1,Low,1,Sad,100,1,Sad,314.799999999814,1,High,302.300000000745
87,1,0.75,UE,1,Low,0,Happy,40,1,Sad,499.199999999255,1,High,344.800000000745
88,1,0.75,E,1,Low,1,Sad,80,1,Sad,470.900000000373,1,High,266.299999999814
89,1,0.75,E,0,High,0,Happy,0,0,Happy,474.799999999814,1,High,340.900000000373
90,1,0.75,UE,0,High,1,Sad,60,0,Happy,793,1,High,182.299999999814
91,1,0.75,E,1,Low,1,Sad,60,1,Sad,535.900000000373,1,High,224.599999999627
92,1,0.75,E,1,Low,1,Sad,80,1,Sad,502.5,1,High,258.199999999255
93,1,0.75,E,0,High,0,Happy,20,0,Happy,532.299999999814,1,High,254.600000000559
94,1,0.75,E,0,High,0,Happy,20,0,Happy,490.599999999627,1,High,351.100000000559
95,1,0.75,UE,1,Low,0,Happy,40,0,Happy,573.800000000745,1,High,195.5
96,1,0.75,E,1,Low,1,Sad,80,1,Sad,240.600000000559,1,High,263.700000000186
97,2,0.25,E,1,Low,0,Happy,0,0,Happy,549.600000000559,1,High,225.600000000559
98,2,0.25,UE,1,Low,1,Sad,80,1,Sad,413.5,1,High,277.799999999814
99,2,0.25,E,1,Low,0,Happy,40,0,Happy,608.899999999441,1,High,318.200000000186
100,2,0.25,E,1,Low,0,Happy,40,1,Sad,742.700000000186,1,High,202.900000000373
101,2,0.25,E,0,High,1,Sad,60,1,Sad,536,1,High,272.799999999814
102,2,0.25,E,1,Low,0,Happy,20,0,Happy,622.899999999441,1,High,220.399999999441
103,2,0.25,E,0,High,1,Sad,80,1,Sad,410.5,1,High,251
104,2,0.25,UE,1,Low,1,Sad,100,1,Sad,532.600000000559,1,High,244.799999999814
105,2,0.25,E,1,Low,0,Happy,20,0,Happy,523.799999999814,1,High,214.899999999441
106,2,0.25,UE,1,Low,1,Sad,60,1,Sad,541.300000000745,1,High,170.700000000186
107,2,0.25,UE,0,High,0,Happy,20,0,Happy,548.399999999441,1,High,258.700000000186
108,2,0.25,E,0,High,1,Sad,100,1,Sad,759.399999999441,1,High,199.099999999627
109,2,0.25,E,1,Low,0,Happy,40,0,Happy,713.799999999814,1,High,209.199999999255
110,2,0.25,E,0,High,1,Sad,80,0,Happy,951,1,High,1933
111,2,0.25,E,0,High,1,Sad,60,1,Sad,588.400000000373,1,High,280.700000000186
112,2,0.25,E,1,Low,0,Happy,0,0,Happy,566.799999999814,1,High,298
113,2,0.25,UE,0,High,0,Happy,40,0,Happy,694.200000000186,1,High,325.400000000373
114,2,0.25,E,0,High,1,Sad,80,1,Sad,450.299999999814,1,High,341.799999999814
115,2,0.25,E,0,High,1,Sad,100,1,Sad,427.200000000186,1,High,286.299999999814
116,2,0.25,E,0,High,1,Sad,60,1,Sad,313.5,1,High,308.100000000559
117,2,0.25,E,1,Low,0,Happy,0,1,Sad,341,1,High,347.899999999441
118,2,0.25,E,1,Low,0,Happy,20,0,Happy,669.099999999627,1,High,261.200000000186
119,2,0.25,UE,0,High,0,Happy,0,0,Happy,507.399999999441,1,High,393.5
120,2,0.25,E,0,High,1,Sad,100,1,Sad,451.399999999441,1,High,319.5
121,3,0.75,E,0,High,0,Happy,0,0,Happy,512.400000000373,1,High,363.100000000559
122,3,0.75,E,0,High,0,Happy,40,0,Happy,786.700000000186,1,High,211.799999999814
123,3,0.75,E,0,High,0,Happy,0,0,Happy,733.200000000186,1,High,274.299999999814
124,3,0.75,E,1,Low,1,Sad,80,1,Sad,517.199999999255,1,High,310.799999999814
125,3,0.75,E,1,Low,1,Sad,60,1,Sad,536.100000000559,1,High,245.800000000745
126,3,0.75,UE,0,High,1,Sad,100,1,Sad,509.799999999814,1,High,246
127,3,0.75,E,0,High,0,Happy,20,0,Happy,586.299999999814,1,High,226.799999999814
128,3,0.75,E,0,High,0,Happy,40,0,Happy,446.100000000559,1,High,320.5
129,3,0.75,UE,1,Low,0,Happy,20,0,Happy,502,1,High,376.799999999814
130,3,0.75,E,1,Low,1,Sad,100,1,Sad,588.099999999627,1,High,271.900000000373
131,3,0.75,E,0,High,0,Happy,40,0,Happy,1046.20000000019,1,High,1767.89999999944
132,3,0.75,UE,1,Low,0,Happy,40,0,Happy,634.899999999441,1,High,307.199999999255
133,3,0.75,UE,0,High,1,Sad,60,0,Happy,760.299999999814,1,High,177
134,3,0.75,E,1,Low,1,Sad,80,1,Sad,678.200000000186,1,High,286.799999999814
135,3,0.75,E,1,Low,1,Sad,60,1,Sad,215.399999999441,1,High,430.199999999255
136,3,0.75,E,1,Low,1,Sad,60,1,Sad,389.5,1,High,271.299999999814
137,3,0.75,E,1,Low,1,Sad,100,1,Sad,458.900000000373,1,High,232.099999999627
138,3,0.75,UE,0,High,1,Sad,80,1,Sad,531,1,High,250.5
139,3,0.75,E,0,High,0,Happy,20,0,Happy,459.699999999255,1,High,290.099999999627
140,3,0.75,E,1,Low,1,Sad,80,1,Sad,478.199999999255,1,High,289.299999999814
141,3,0.75,E,1,Low,1,Sad,100,1,Sad,406.5,1,High,249.200000000186
142,3,0.75,E,0,High,0,Happy,0,0,Happy,264.099999999627,1,High,471.099999999627
143,3,0.75,UE,1,Low,0,Happy,0,0,Happy,516.799999999814,1,High,243.799999999814
144,3,0.75,E,0,High,0,Happy,20,0,Happy,448,1,High,311.5
145,4,0.25,E,1,Low,0,Happy,0,0,Happy,445.100000000559,1,High,278.099999999627
146,4,0.25,E,1,Low,0,Happy,20,0,Happy,654.200000000186,1,High,268
147,4,0.25,UE,1,Low,1,Sad,80,1,Sad,430.599999999627,1,High,262.200000000186
148,4,0.25,UE,0,High,0,Happy,40,0,Happy,666.900000000373,1,High,223.299999999814
149,4,0.25,E,0,High,1,Sad,80,1,Sad,710,1,High,204.399999999441
150,4,0.25,E,0,High,1,Sad,60,1,Sad,474.700000000186,1,High,223.400000000373
151,4,0.25,E,1,Low,0,Happy,0,0,Happy,662.5,1,High,187.700000000186
152,4,0.25,E,0,High,1,Sad,80,1,Sad,431.099999999627,1,High,276.699999999255
153,4,0.25,E,1,Low,0,Happy,40,0,Happy,518,1,High,256.600000000559
154,4,0.25,E,0,High,1,Sad,100,1,Sad,567.5,1,High,273.5
155,4,0.25,E,0,High,1,Sad,100,1,Sad,570.5,1,High,251.199999999255
156,4,0.25,E,0,High,1,Sad,80,1,Sad,439.599999999627,1,High,272.599999999627
157,4,0.25,E,1,Low,0,Happy,20,0,Happy,644.200000000186,1,High,286
158,4,0.25,UE,0,High,0,Happy,20,1,Sad,532,1,High,230.399999999441
159,4,0.25,E,0,High,1,Sad,60,1,Sad,547.700000000186,1,High,226.799999999814
160,4,0.25,E,1,Low,0,Happy,40,0,Happy,795.900000000373,1,High,185.100000000559
161,4,0.25,E,1,Low,0,Happy,0,0,Happy,479.800000000745,1,High,291
162,4,0.25,UE,1,Low,1,Sad,60,1,Sad,440.199999999255,1,High,256.300000000745
163,4,0.25,E,0,High,1,Sad,100,0,Happy,523,1,High,393.100000000559
164,4,0.25,E,0,High,1,Sad,60,1,Sad,695.899999999441,1,High,223.900000000373
165,4,0.25,UE,0,High,0,Happy,0,0,Happy,604.5,1,High,263.800000000745
166,4,0.25,E,1,Low,0,Happy,40,0,Happy,731.099999999627,1,High,175.200000000186
167,4,0.25,E,1,Low,0,Happy,20,0,Happy,601.600000000559,1,High,222.200000000186
168,4,0.25,UE,1,Low,1,Sad,100,1,Sad,539.700000000186,1,High,240.5
169,5,0.75,E,0,High,0,Happy,20,0,Happy,527.100000000559,1,High,252.5
170,5,0.75,UE,0,High,1,Sad,60,1,Sad,716.200000000186,1,High,184.400000000373
171,5,0.75,E,0,High,0,Happy,0,0,Happy,544.900000000373,1,High,233
172,5,0.75,E,0,High,0,Happy,40,0,Happy,824.299999999814,1,High,165.900000000373
173,5,0.75,E,1,Low,1,Sad,60,1,Sad,504.100000000559,1,High,212.299999999814
174,5,0.75,E,1,Low,1,Sad,80,1,Sad,602.5,1,High,218.799999999814
175,5,0.75,E,1,Low,1,Sad,60,1,Sad,608.200000000186,1,High,181.700000000186
176,5,0.75,E,0,High,0,Happy,20,0,Happy,549.299999999814,1,High,211.5
177,5,0.75,E,1,Low,1,Sad,100,1,Sad,501.600000000559,1,High,237.799999999814
178,5,0.75,UE,1,Low,0,Happy,0,0,Happy,649.200000000186,1,High,194.5
179,5,0.75,E,0,High,0,Happy,20,0,Happy,675.399999999441,1,High,235.099999999627
180,5,0.75,UE,1,Low,0,Happy,40,0,Happy,747.600000000559,1,High,169.5
181,5,0.75,E,1,Low,1,Sad,60,1,Sad,492.5,1,High,230.399999999441
182,5,0.75,E,0,High,0,Happy,40,0,Happy,497.900000000373,1,High,195.399999999441
183,5,0.75,E,1,Low,1,Sad,80,1,Sad,511.900000000373,1,High,216
184,5,0.75,E,1,Low,1,Sad,80,1,Sad,845.200000000186,1,High,205.700000000186
185,5,0.75,UE,0,High,1,Sad,80,0,Happy,761.299999999814,1,High,493.5
186,5,0.75,UE,0,High,1,Sad,100,1,Sad,588.300000000745,1,High,224.200000000186
187,5,0.75,E,0,High,0,Happy,0,0,Happy,564.599999999627,1,High,267.700000000186
188,5,0.75,E,1,Low,1,Sad,100,1,Sad,487.099999999627,1,High,311.100000000559
189,5,0.75,UE,1,Low,0,Happy,20,0,Happy,627.700000000186,1,High,247.399999999441
190,5,0.75,E,0,High,0,Happy,0,0,Happy,608.700000000186,1,High,238.900000000373
191,5,0.75,E,1,Low,1,Sad,100,1,Sad,552.399999999441,1,High,277.899999999441
192,5,0.75,E,0,High,0,Happy,40,0,Happy,624.100000000559,1,High,228.700000000186
