Trial_N,Block_N,Contingency,Expectedness,Cue_idx,Cue_name,Outcome_idx,Outcome_name,Outcome_p_sad,Response_idx,Response_name,Response_RT,Confidence_idx,Confidence_name,Confidence_RT
1,1,0.75,E,1,Low,1,Sad,80,1,Sad,1838.79999999981,1,High,1951.5
2,1,0.75,E,1,Low,1,Sad,100,1,Sad,1693.79999999981,1,High,687.200000000186
3,1,0.75,E,1,Low,1,Sad,80,1,Sad,1069.39999999991,1,High,849.700000000186
4,1,0.75,E,0,High,0,Happy,20,0,Happy,899.300000000279,1,High,780
5,1,0.75,E,0,High,0,Happy,0,0,Happy,953.800000000279,1,High,615.900000000373
6,1,0.75,UE,0,High,1,Sad,100,1,Sad,1054.20000000019,1,High,669.399999999907
7,1,0.75,E,1,Low,1,Sad,60,1,Sad,1018,1,High,513.200000000186
8,1,0.75,E,0,High,0,Happy,20,0,Happy,1253.89999999991,1,High,667.5
9,1,0.75,UE,1,Low,0,Happy,20,0,Happy,1017.79999999981,0,Low,838.399999999907
10,1,0.75,E,1,Low,1,Sad,100,1,Sad,867.900000000373,1,High,625.899999999907
11,1,0.75,E,1,Low,1,Sad,60,1,Sad,1126.79999999981,1,High,544.5
12,1,0.75,E,0,High,0,Happy,40,0,Happy,824.599999999627,1,High,368.899999999907
13,1,0.75,E,1,Low,1,Sad,60,1,Sad,1041.20000000019,0,Low,548.700000000186
14,1,0.75,E,1,Low,1,Sad,60,1,Sad,934.5,0,Low,536.699999999721
15,1,0.75,E,1,Low,1,Sad,60,1,Sad,829.400000000373,0,Low,440.800000000279
16,1,0.75,UE,0,High,1,Sad,80,1,Sad,964.400000000373,0,Low,567.100000000093
17,1,0.75,E,0,High,0,Happy,0,0,Happy,1004.5,1,High,685.399999999907
18,1,0.75,E,0,High,0,Happy,20,0,Happy,974.299999999814,1,High,669.800000000279
19,1,0.75,E,1,Low,1,Sad,80,1,Sad,1569.69999999972,0,Low,730.100000000093
20,1,0.75,E,0,High,0,Happy,0,0,Happy,993.900000000373,1,High,648.700000000186
21,1,0.75,UE,0,High,1,Sad,100,1,Sad,1413.20000000019,0,Low,626.600000000093
22,1,0.75,E,0,High,0,Happy,20,0,Happy,979,1,High,739.100000000093
23,1,0.75,E,1,Low,1,Sad,60,1,Sad,871,0,Low,569.100000000093
24,1,0.75,E,0,High,0,Happy,40,1,Sad,915.400000000373,0,Low,576
25,1,0.75,UE,1,Low,0,Happy,0,0,Happy,729.5,1,High,584.5
26,1,0.75,E,1,Low,1,Sad,80,1,Sad,1305.19999999972,0,Low,881.100000000093
27,1,0.75,E,0,High,0,Happy,0,0,Happy,1036.89999999991,1,High,519.600000000093
28,1,0.75,E,0,High,0,Happy,0,0,Happy,381.399999999907,1,High,492.100000000093
29,1,0.75,E,1,Low,1,Sad,60,1,Sad,924.100000000093,0,Low,647.5
30,1,0.75,E,1,Low,1,Sad,100,1,Sad,495.5,0,Low,523.300000000279
31,1,0.75,UE,1,Low,0,Happy,40,0,Happy,759.200000000186,0,Low,690.5
32,1,0.75,UE,0,High,1,Sad,100,1,Sad,732.100000000093,1,High,1186
33,1,0.75,E,0,High,0,Happy,40,0,Happy,707.399999999907,1,High,567
34,1,0.75,E,0,High,0,Happy,40,0,Happy,468.200000000186,1,High,511.799999999814
35,1,0.75,E,1,Low,1,Sad,80,1,Sad,816.799999999814,0,Low,526.399999999907
36,1,0.75,E,1,Low,1,Sad,60,1,Sad,470.5,0,Low,467.5
37,1,0.75,E,0,High,0,Happy,40,0,Happy,392,1,High,523.299999999814
38,1,0.75,UE,0,High,1,Sad,80,1,Sad,560.400000000373,0,Low,479.100000000093
39,1,0.75,E,1,Low,1,Sad,60,1,Sad,828.099999999627,0,Low,479
40,1,0.75,E,0,High,0,Happy,40,0,Happy,414.800000000279,0,Low,878.700000000186
41,1,0.75,UE,1,Low,0,Happy,20,0,Happy,787.600000000093,0,Low,498.899999999907
42,1,0.75,E,0,High,0,Happy,20,0,Happy,762,0,Low,497.800000000279
43,1,0.75,E,1,Low,1,Sad,100,1,Sad,1165.80000000028,1,High,829.599999999627
44,1,0.75,UE,0,High,1,Sad,80,1,Sad,898.299999999814,0,Low,525.800000000279
45,1,0.75,E,1,Low,1,Sad,100,1,Sad,686.100000000093,0,Low,843.899999999907
46,1,0.75,E,0,High,0,Happy,0,0,Happy,636.200000000186,1,High,555.5
47,1,0.75,E,1,Low,1,Sad,80,1,Sad,1057.5,0,Low,623
48,1,0.75,UE,1,Low,0,Happy,20,0,Happy,696.199999999721,0,Low,820.199999999721
49,1,0.75,E,0,High,0,Happy,0,0,Happy,699.299999999814,1,High,450.200000000186
50,1,0.75,E,1,Low,1,Sad,80,1,Sad,845,0,Low,582.700000000186
51,1,0.75,E,0,High,0,Happy,20,0,Happy,364.300000000279,1,High,437.700000000186
52,1,0.75,UE,0,High,1,Sad,60,1,Sad,490.300000000279,0,Low,732
53,1,0.75,UE,1,Low,0,Happy,0,0,Happy,443.600000000093,1,High,465.200000000186
54,1,0.75,E,1,Low,1,Sad,100,1,Sad,516.399999999907,1,High,956
55,1,0.75,E,1,Low,1,Sad,100,1,Sad,715,1,High,515.600000000093
56,1,0.75,E,0,High,0,Happy,0,0,Happy,370,1,High,440.199999999721
57,1,0.75,E,1,Low,1,Sad,100,1,Sad,460,0,Low,588.300000000279
58,1,0.75,UE,0,High,1,Sad,100,1,Sad,553.700000000186,1,High,1114.69999999972
59,1,0.75,E,1,Low,1,Sad,80,1,Sad,789.800000000279,0,Low,451.599999999627
60,1,0.75,E,0,High,0,Happy,20,0,Happy,687,1,High,419.200000000186
61,1,0.75,UE,1,Low,0,Happy,40,0,Happy,568.299999999814,1,High,418.199999999721
62,1,0.75,UE,1,Low,0,Happy,20,0,Happy,1020.70000000019,1,High,485.100000000093
63,1,0.75,E,0,High,0,Happy,20,0,Happy,427.799999999814,1,High,483
64,1,0.75,E,1,Low,1,Sad,60,0,Happy,621.300000000279,1,High,574.899999999907
65,1,0.75,E,0,High,0,Happy,40,0,Happy,811.5,0,Low,529.100000000093
66,1,0.75,E,1,Low,1,Sad,80,1,Sad,800.100000000093,0,Low,764.799999999814
67,1,0.75,UE,1,Low,0,Happy,0,0,Happy,569.800000000279,1,High,473.699999999721
68,1,0.75,E,0,High,0,Happy,40,0,Happy,660.300000000279,1,High,464.5
69,1,0.75,E,0,High,0,Happy,40,0,Happy,436.400000000373,1,High,400.099999999627
70,1,0.75,E,0,High,0,Happy,0,0,Happy,268.899999999907,1,High,423.200000000186
71,1,0.75,UE,1,Low,0,Happy,0,0,Happy,683.799999999814,0,Low,494.600000000093
72,1,0.75,E,1,Low,1,Sad,60,0,Happy,928.200000000186,0,Low,534.600000000093
73,1,0.75,E,0,High,0,Happy,40,0,Happy,374.899999999907,1,High,404.199999999721
74,1,0.75,E,1,Low,1,Sad,100,1,Sad,780.799999999814,1,High,873.5
75,1,0.75,E,1,Low,1,Sad,100,1,Sad,304.199999999721,1,High,431.800000000279
76,1,0.75,E,0,High,0,Happy,20,0,Happy,453.900000000373,1,High,445.299999999814
77,1,0.75,UE,0,High,1,Sad,60,0,Happy,782.099999999627,0,Low,499.799999999814
78,1,0.75,E,0,High,0,Happy,0,0,Happy,373,1,High,407.200000000186
79,1,0.75,E,0,High,0,Happy,40,0,Happy,352,1,High,403
80,1,0.75,UE,0,High,1,Sad,60,0,Happy,918.599999999627,0,Low,424
81,1,0.75,E,0,High,0,Happy,40,0,Happy,427,0,Low,454.5
82,1,0.75,UE,0,High,1,Sad,80,1,Sad,977.299999999814,0,Low,447.799999999814
83,1,0.75,E,0,High,0,Happy,0,0,Happy,444,1,High,435.899999999907
84,1,0.75,E,0,High,0,Happy,20,0,Happy,353.099999999627,1,High,384.399999999907
85,1,0.75,E,1,Low,1,Sad,100,1,Sad,604.400000000373,1,High,1044.89999999991
86,1,0.75,E,1,Low,1,Sad,100,1,Sad,366.399999999907,1,High,421.700000000186
87,1,0.75,UE,1,Low,0,Happy,40,0,Happy,1623.59999999963,0,Low,798.799999999814
88,1,0.75,E,1,Low,1,Sad,80,1,Sad,767.899999999907,0,Low,611.100000000093
89,1,0.75,E,0,High,0,Happy,0,0,Happy,333.600000000093,1,High,415.5
90,1,0.75,UE,0,High,1,Sad,60,0,Happy,613.099999999627,0,Low,494.5
91,1,0.75,E,1,Low,1,Sad,60,0,Happy,798.300000000279,0,Low,515.399999999907
92,1,0.75,E,1,Low,1,Sad,80,1,Sad,978.299999999814,0,Low,502.5
93,1,0.75,E,0,High,0,Happy,20,0,Happy,354.800000000279,1,High,403.899999999907
94,1,0.75,E,0,High,0,Happy,20,0,Happy,269.699999999721,1,High,357.300000000279
95,1,0.75,UE,1,Low,0,Happy,40,0,Happy,830.400000000373,0,Low,447.100000000093
96,1,0.75,E,1,Low,1,Sad,80,1,Sad,993.200000000186,0,Low,456.700000000186
97,2,0.25,E,1,Low,0,Happy,0,0,Happy,513.199999999721,1,High,486.899999999907
98,2,0.25,UE,1,Low,1,Sad,80,1,Sad,761,0,Low,487.100000000093
99,2,0.25,E,1,Low,0,Happy,40,0,Happy,590,0,Low,522.399999999907
100,2,0.25,E,1,Low,0,Happy,40,0,Happy,425.799999999814,0,Low,484
101,2,0.25,E,0,High,1,Sad,60,1,Sad,965.600000000093,0,Low,484.100000000093
102,2,0.25,E,1,Low,0,Happy,20,0,Happy,527.399999999907,1,High,437.600000000093
103,2,0.25,E,0,High,1,Sad,80,1,Sad,730.800000000279,0,Low,541.600000000093
104,2,0.25,UE,1,Low,1,Sad,100,1,Sad,730.100000000093,0,Low,457.199999999721
105,2,0.25,E,1,Low,0,Happy,20,0,Happy,463.600000000093,1,High,451.899999999907
106,2,0.25,UE,1,Low,1,Sad,60,1,Sad,814.299999999814,0,Low,508.200000000186
107,2,0.25,UE,0,High,0,Happy,20,0,Happy,286,1,High,348.100000000093
108,2,0.25,E,0,High,1,Sad,100,1,Sad,834.200000000186,0,Low,631.200000000186
109,2,0.25,E,1,Low,0,Happy,40,0,Happy,477.100000000093,1,High,771.700000000186
110,2,0.25,E,0,High,1,Sad,80,1,Sad,1042.5,0,Low,504.800000000279
111,2,0.25,E,0,High,1,Sad,60,0,Happy,1181.20000000019,0,Low,493.899999999907
112,2,0.25,E,1,Low,0,Happy,0,0,Happy,379.700000000186,1,High,429.800000000279
113,2,0.25,UE,0,High,0,Happy,40,0,Happy,386.100000000093,1,High,392
114,2,0.25,E,0,High,1,Sad,80,0,Happy,852.399999999907,0,Low,383.100000000093
115,2,0.25,E,0,High,1,Sad,100,1,Sad,776.300000000279,0,Low,550
116,2,0.25,E,0,High,1,Sad,60,0,Happy,1128.19999999972,0,Low,392.299999999814
117,2,0.25,E,1,Low,0,Happy,0,0,Happy,543.5,1,High,373.5
118,2,0.25,E,1,Low,0,Happy,20,0,Happy,415.699999999721,1,High,419.800000000279
119,2,0.25,UE,0,High,0,Happy,0,0,Happy,305.5,1,High,688.399999999907
120,2,0.25,E,0,High,1,Sad,100,1,Sad,609.099999999627,0,Low,494.200000000186
121,3,0.75,E,0,High,0,Happy,0,0,Happy,356.900000000373,1,High,363.199999999721
122,3,0.75,E,0,High,0,Happy,40,0,Happy,401.5,1,High,361.899999999907
123,3,0.75,E,0,High,0,Happy,0,0,Happy,330.200000000186,1,High,387.199999999721
124,3,0.75,E,1,Low,1,Sad,80,1,Sad,851.400000000373,1,High,403
125,3,0.75,E,1,Low,1,Sad,60,1,Sad,438,0,Low,529.100000000093
126,3,0.75,UE,0,High,1,Sad,100,1,Sad,650.200000000186,1,High,502.399999999907
127,3,0.75,E,0,High,0,Happy,20,0,Happy,499.099999999627,1,High,403.5
128,3,0.75,E,0,High,0,Happy,40,0,Happy,596.600000000093,1,High,451.5
129,3,0.75,UE,1,Low,0,Happy,20,0,Happy,456.700000000186,1,High,407
130,3,0.75,E,1,Low,1,Sad,100,1,Sad,1215.79999999981,1,High,621.300000000279
131,3,0.75,E,0,High,0,Happy,40,0,Happy,1650.60000000009,1,High,436.899999999907
132,3,0.75,UE,1,Low,0,Happy,40,1,Sad,901.300000000279,0,Low,917.899999999907
133,3,0.75,UE,0,High,1,Sad,60,1,Sad,649.200000000186,0,Low,534.399999999907
134,3,0.75,E,1,Low,1,Sad,80,1,Sad,656.100000000093,1,High,552.699999999721
135,3,0.75,E,1,Low,1,Sad,60,1,Sad,470.700000000186,1,High,456
136,3,0.75,E,1,Low,1,Sad,60,0,Happy,786.899999999907,0,Low,648.399999999907
137,3,0.75,E,1,Low,1,Sad,100,1,Sad,710.5,1,High,429.600000000093
138,3,0.75,UE,0,High,1,Sad,80,1,Sad,642.800000000279,0,Low,570.799999999814
139,3,0.75,E,0,High,0,Happy,20,0,Happy,458.400000000373,1,High,422.800000000279
140,3,0.75,E,1,Low,1,Sad,80,1,Sad,1036,1,High,1047.60000000009
141,3,0.75,E,1,Low,1,Sad,100,1,Sad,655.200000000186,1,High,443.5
142,3,0.75,E,0,High,0,Happy,0,0,Happy,424.5,1,High,515.799999999814
143,3,0.75,UE,1,Low,0,Happy,0,0,Happy,448.800000000279,1,High,466.399999999907
144,3,0.75,E,0,High,0,Happy,20,0,Happy,483,1,High,428.300000000279
145,4,0.25,E,1,Low,0,Happy,0,0,Happy,431.899999999907,1,High,410.399999999907
146,4,0.25,E,1,Low,0,Happy,20,0,Happy,379.700000000186,1,High,404.799999999814
147,4,0.25,UE,1,Low,1,Sad,80,1,Sad,484.400000000373,0,Low,485.799999999814
148,4,0.25,UE,0,High,0,Happy,40,0,Happy,273.300000000279,1,High,369.300000000279
149,4,0.25,E,0,High,1,Sad,80,1,Sad,639.900000000373,0,Low,480
150,4,0.25,E,0,High,1,Sad,60,1,Sad,716.299999999814,1,High,503.700000000186
151,4,0.25,E,1,Low,0,Happy,0,0,Happy,481.799999999814,1,High,402.700000000186
152,4,0.25,E,0,High,1,Sad,80,1,Sad,765.299999999814,0,Low,431.5
153,4,0.25,E,1,Low,0,Happy,40,0,Happy,407.5,1,High,414.300000000279
154,4,0.25,E,0,High,1,Sad,100,1,Sad,662.600000000093,1,High,436
155,4,0.25,E,0,High,1,Sad,100,1,Sad,812.399999999907,1,High,483.600000000093
156,4,0.25,E,0,High,1,Sad,80,1,Sad,441.700000000186,1,High,495.299999999814
157,4,0.25,E,1,Low,0,Happy,20,0,Happy,598.899999999907,1,High,455.700000000186
158,4,0.25,UE,0,High,0,Happy,20,0,Happy,489.700000000186,1,High,414.700000000186
159,4,0.25,E,0,High,1,Sad,60,0,Happy,933.299999999814,0,Low,420.5
160,4,0.25,E,1,Low,0,Happy,40,0,Happy,569.5,1,High,556.199999999721
161,4,0.25,E,1,Low,0,Happy,0,0,Happy,327.800000000279,1,High,375.199999999721
162,4,0.25,UE,1,Low,1,Sad,60,0,Happy,442.5,0,Low,1176.70000000019
163,4,0.25,E,0,High,1,Sad,100,1,Sad,686,1,High,456.200000000186
164,4,0.25,E,0,High,1,Sad,60,1,Sad,534.800000000279,0,Low,742.799999999814
165,4,0.25,UE,0,High,0,Happy,0,0,Happy,455.700000000186,1,High,449.200000000186
166,4,0.25,E,1,Low,0,Happy,40,0,Happy,720,1,High,374.600000000093
167,4,0.25,E,1,Low,0,Happy,20,0,Happy,314.399999999907,1,High,332.100000000093
168,4,0.25,UE,1,Low,1,Sad,100,0,Happy,448.399999999907,0,Low,896.800000000279
169,5,0.75,E,0,High,0,Happy,20,0,Happy,982.199999999721,1,High,410.399999999907
170,5,0.75,UE,0,High,1,Sad,60,0,Happy,846.699999999721,0,Low,384.199999999721
171,5,0.75,E,0,High,0,Happy,0,0,Happy,338.200000000186,1,High,367.100000000093
172,5,0.75,E,0,High,0,Happy,40,0,Happy,505.100000000093,1,High,342.600000000093
173,5,0.75,E,1,Low,1,Sad,60,0,Happy,894.599999999627,0,Low,424.5
174,5,0.75,E,1,Low,1,Sad,80,0,Happy,1341.30000000028,0,Low,406.700000000186
175,5,0.75,E,1,Low,1,Sad,60,1,Sad,713,0,Low,417.900000000373
176,5,0.75,E,0,High,0,Happy,20,0,Happy,456.300000000279,1,High,307.600000000093
177,5,0.75,E,1,Low,1,Sad,100,1,Sad,598,1,High,481.899999999907
178,5,0.75,UE,1,Low,0,Happy,0,0,Happy,464.200000000186,1,High,413.299999999814
179,5,0.75,E,0,High,0,Happy,20,0,Happy,411.299999999814,1,High,382
180,5,0.75,UE,1,Low,0,Happy,40,0,Happy,532.400000000373,0,Low,378.100000000093
181,5,0.75,E,1,Low,1,Sad,60,0,Happy,614.299999999814,0,Low,430
182,5,0.75,E,0,High,0,Happy,40,0,Happy,392.399999999907,0,Low,494.300000000279
183,5,0.75,E,1,Low,1,Sad,80,1,Sad,723.5,0,Low,442.600000000093
184,5,0.75,E,1,Low,1,Sad,80,1,Sad,509.399999999907,0,Low,481.600000000093
185,5,0.75,UE,0,High,1,Sad,80,1,Sad,572.399999999907,0,Low,443.900000000373
186,5,0.75,UE,0,High,1,Sad,100,1,Sad,758.600000000093,1,High,380
187,5,0.75,E,0,High,0,Happy,0,0,Happy,603.799999999814,1,High,409.600000000093
188,5,0.75,E,1,Low,1,Sad,100,1,Sad,707.399999999907,1,High,464.900000000373
189,5,0.75,UE,1,Low,0,Happy,20,1,Sad,1077.69999999972,0,Low,833.200000000186
190,5,0.75,E,0,High,0,Happy,0,0,Happy,372.200000000186,1,High,376.399999999907
191,5,0.75,E,1,Low,1,Sad,100,1,Sad,758.799999999814,1,High,476.899999999907
192,5,0.75,E,0,High,0,Happy,40,0,Happy,736.200000000186,0,Low,724.700000000186
