Trial_N,Block_N,Contingency,Expectedness,Cue_idx,Cue_name,Outcome_idx,Outcome_name,Outcome_p_sad,Response_idx,Response_name,Response_RT,Confidence_idx,Confidence_name,Confidence_RT
1,1,0.75,E,1,Low,1,Sad,80,1,Sad,936.100000000093,1,High,1403
2,1,0.75,E,1,Low,1,Sad,100,1,Sad,595.100000000093,1,High,428
3,1,0.75,E,1,Low,1,Sad,80,1,Sad,490.299999999814,1,High,386.200000000186
4,1,0.75,E,0,High,0,Happy,20,0,Happy,729.300000000279,1,High,371.899999999907
5,1,0.75,E,0,High,0,Happy,0,0,Happy,1256.29999999981,1,High,355.5
6,1,0.75,UE,0,High,1,Sad,100,1,Sad,462.800000000279,1,High,531.699999999721
7,1,0.75,E,1,Low,1,Sad,60,1,Sad,655.799999999814,1,High,411.600000000093
8,1,0.75,E,0,High,0,Happy,20,0,Happy,408.799999999814,1,High,411.299999999814
9,1,0.75,UE,1,Low,0,Happy,20,0,Happy,711.599999999627,1,High,332.600000000093
10,1,0.75,E,1,Low,1,Sad,100,1,Sad,507.799999999814,1,High,379.700000000186
11,1,0.75,E,1,Low,1,Sad,60,1,Sad,939.300000000279,1,High,395.600000000093
12,1,0.75,E,0,High,0,Happy,40,0,Happy,904.599999999627,1,High,507.800000000279
13,1,0.75,E,1,Low,1,Sad,60,1,Sad,792.899999999907,1,High,451.200000000186
14,1,0.75,E,1,Low,1,Sad,60,1,Sad,1072.19999999972,0,Low,547.899999999907
15,1,0.75,E,1,Low,1,Sad,60,1,Sad,1033.89999999991,0,Low,556.599999999627
16,1,0.75,UE,0,High,1,Sad,80,1,Sad,947,1,High,908.600000000093
17,1,0.75,E,0,High,0,Happy,0,0,Happy,582,1,High,378.299999999814
18,1,0.75,E,0,High,0,Happy,20,0,Happy,463.399999999907,1,High,404.399999999907
19,1,0.75,E,1,Low,1,Sad,80,1,Sad,609,1,High,355.699999999721
20,1,0.75,E,0,High,0,Happy,0,0,Happy,584.399999999907,1,High,371.899999999907
21,1,0.75,UE,0,High,1,Sad,100,1,Sad,1131.80000000028,1,High,444.200000000186
22,1,0.75,E,0,High,0,Happy,20,0,Happy,479.700000000186,1,High,419.700000000186
23,1,0.75,E,1,Low,1,Sad,60,1,Sad,756,1,High,362.799999999814
24,1,0.75,E,0,High,0,Happy,40,0,Happy,734.700000000186,1,High,363.899999999907
25,1,0.75,UE,1,Low,0,Happy,0,0,Happy,846.700000000186,1,High,315.699999999721
26,1,0.75,E,1,Low,1,Sad,80,1,Sad,540.700000000186,1,High,402.400000000373
27,1,0.75,E,0,High,0,Happy,0,0,Happy,708.399999999907,1,High,338.300000000279
28,1,0.75,E,0,High,0,Happy,0,0,Happy,569.899999999907,1,High,332
29,1,0.75,E,1,Low,1,Sad,60,1,Sad,725.600000000093,1,High,564.699999999721
30,1,0.75,E,1,Low,1,Sad,100,1,Sad,1009.40000000037,1,High,1866.39999999991
31,1,0.75,UE,1,Low,0,Happy,40,0,Happy,1080.70000000019,0,Low,523.899999999907
32,1,0.75,UE,0,High,1,Sad,100,1,Sad,979.699999999721,1,High,396
33,1,0.75,E,0,High,0,Happy,40,0,Happy,792.200000000186,1,High,986.5
34,1,0.75,E,0,High,0,Happy,40,1,Sad,3814.19999999972,0,Low,579.699999999721
35,1,0.75,E,1,Low,1,Sad,80,1,Sad,878.700000000186,1,High,588.100000000093
36,1,0.75,E,1,Low,1,Sad,60,0,Happy,3612.79999999981,0,Low,443.699999999721
37,1,0.75,E,0,High,0,Happy,40,0,Happy,835.700000000186,1,High,339.599999999627
38,1,0.75,UE,0,High,1,Sad,80,1,Sad,1214.20000000019,1,High,659.700000000186
39,1,0.75,E,1,Low,1,Sad,60,1,Sad,3269.39999999991,0,Low,379.599999999627
40,1,0.75,E,0,High,0,Happy,40,0,Happy,709.5,1,High,410.899999999907
41,1,0.75,UE,1,Low,0,Happy,20,0,Happy,943,1,High,348.200000000186
42,1,0.75,E,0,High,0,Happy,20,0,Happy,533.5,1,High,347.800000000279
43,1,0.75,E,1,Low,1,Sad,100,1,Sad,846.200000000186,1,High,747.300000000279
44,1,0.75,UE,0,High,1,Sad,80,1,Sad,1394.20000000019,1,High,491.700000000186
45,1,0.75,E,1,Low,1,Sad,100,1,Sad,889.100000000093,1,High,346
46,1,0.75,E,0,High,0,Happy,0,0,Happy,1665.79999999981,1,High,347.800000000279
47,1,0.75,E,1,Low,1,Sad,80,1,Sad,1064.90000000037,1,High,348.800000000279
48,1,0.75,UE,1,Low,0,Happy,20,0,Happy,537.199999999721,1,High,331.800000000279
49,1,0.75,E,0,High,0,Happy,0,0,Happy,2160.5,1,High,275.100000000093
50,1,0.75,E,1,Low,1,Sad,80,1,Sad,482.799999999814,1,High,323.399999999907
51,1,0.75,E,0,High,0,Happy,20,0,Happy,453,1,High,339.700000000186
52,1,0.75,UE,0,High,1,Sad,60,1,Sad,566.899999999907,0,Low,762.800000000279
53,1,0.75,UE,1,Low,0,Happy,0,0,Happy,928.700000000186,1,High,371.899999999907
54,1,0.75,E,1,Low,1,Sad,100,1,Sad,614,1,High,355.799999999814
55,1,0.75,E,1,Low,1,Sad,100,1,Sad,482.100000000093,1,High,378.899999999907
56,1,0.75,E,0,High,0,Happy,0,0,Happy,537.600000000093,1,High,434.5
57,1,0.75,E,1,Low,1,Sad,100,1,Sad,503.399999999907,1,High,482.299999999814
58,1,0.75,UE,0,High,1,Sad,100,1,Sad,1016,1,High,515.200000000186
59,1,0.75,E,1,Low,1,Sad,80,1,Sad,618.100000000093,1,High,675.400000000373
60,1,0.75,E,0,High,0,Happy,20,0,Happy,609.399999999907,1,High,444.299999999814
61,1,0.75,UE,1,Low,0,Happy,40,1,Sad,2934.90000000037,0,Low,524
62,1,0.75,UE,1,Low,0,Happy,20,0,Happy,1271.70000000019,1,High,684.200000000186
63,1,0.75,E,0,High,0,Happy,20,0,Happy,629.399999999907,1,High,364.5
64,1,0.75,E,1,Low,1,Sad,60,1,Sad,749.899999999907,0,Low,1107.80000000028
65,1,0.75,E,0,High,0,Happy,40,0,Happy,858.100000000093,0,Low,507.700000000186
66,1,0.75,E,1,Low,1,Sad,80,1,Sad,863.699999999721,1,High,467.700000000186
67,1,0.75,UE,1,Low,0,Happy,0,0,Happy,544.600000000093,1,High,370
68,1,0.75,E,0,High,0,Happy,40,0,Happy,1212.60000000009,1,High,450.200000000186
69,1,0.75,E,0,High,0,Happy,40,0,Happy,930.399999999907,0,Low,516.300000000279
70,1,0.75,E,0,High,0,Happy,0,0,Happy,735.900000000373,1,High,323.399999999907
71,1,0.75,UE,1,Low,0,Happy,0,0,Happy,534.699999999721,1,High,363.900000000373
72,1,0.75,E,1,Low,1,Sad,60,1,Sad,551.400000000373,1,High,355.800000000279
73,1,0.75,E,0,High,0,Happy,40,0,Happy,684.600000000093,0,Low,635
74,1,0.75,E,1,Low,1,Sad,100,1,Sad,1199.89999999991,1,High,476.099999999627
75,1,0.75,E,1,Low,1,Sad,100,1,Sad,620.100000000093,1,High,299.399999999907
76,1,0.75,E,0,High,0,Happy,20,0,Happy,586.300000000279,1,High,365.100000000093
77,1,0.75,UE,0,High,1,Sad,60,1,Sad,1159,0,Low,475.5
78,1,0.75,E,0,High,0,Happy,0,0,Happy,591.199999999721,1,High,403.699999999721
79,1,0.75,E,0,High,0,Happy,40,0,Happy,1249.89999999991,0,Low,675.299999999814
80,1,0.75,UE,0,High,1,Sad,60,1,Sad,1187.5,0,Low,799.100000000093
81,1,0.75,E,0,High,0,Happy,40,0,Happy,1589.5,0,Low,554.5
82,1,0.75,UE,0,High,1,Sad,80,1,Sad,826.299999999814,1,High,370.799999999814
83,1,0.75,E,0,High,0,Happy,0,0,Happy,460.399999999907,1,High,380.099999999627
84,1,0.75,E,0,High,0,Happy,20,0,Happy,1271.29999999981,1,High,563.699999999721
85,1,0.75,E,1,Low,1,Sad,100,1,Sad,601,1,High,371.199999999721
86,1,0.75,E,1,Low,1,Sad,100,1,Sad,910,1,High,371.399999999907
87,1,0.75,UE,1,Low,0,Happy,40,0,Happy,1180.80000000028,0,Low,731.700000000186
88,1,0.75,E,1,Low,1,Sad,80,1,Sad,851.5,1,High,796.399999999907
89,1,0.75,E,0,High,0,Happy,0,0,Happy,767.600000000093,1,High,419.899999999907
90,1,0.75,UE,0,High,1,Sad,60,1,Sad,1076.80000000028,0,Low,772.300000000279
91,1,0.75,E,1,Low,1,Sad,60,1,Sad,942,1,High,404.099999999627
92,1,0.75,E,1,Low,1,Sad,80,1,Sad,938.700000000186,1,High,404.900000000373
93,1,0.75,E,0,High,0,Happy,20,0,Happy,755.600000000093,0,Low,843.399999999907
94,1,0.75,E,0,High,0,Happy,20,0,Happy,2832.5,1,High,284
95,1,0.75,UE,1,Low,0,Happy,40,0,Happy,859.5,0,Low,643.299999999814
96,1,0.75,E,1,Low,1,Sad,80,1,Sad,822.799999999814,1,High,1275.89999999991
97,2,0.25,E,1,Low,0,Happy,0,0,Happy,681.399999999907,1,High,387.100000000093
98,2,0.25,UE,1,Low,1,Sad,80,1,Sad,1121.10000000009,1,High,468.400000000373
99,2,0.25,E,1,Low,0,Happy,40,0,Happy,842.100000000093,1,High,323.399999999907
100,2,0.25,E,1,Low,0,Happy,40,0,Happy,636.299999999814,1,High,307.5
101,2,0.25,E,0,High,1,Sad,60,1,Sad,829.399999999907,1,High,605.399999999907
102,2,0.25,E,1,Low,0,Happy,20,0,Happy,1174,1,High,570.5
103,2,0.25,E,0,High,1,Sad,80,1,Sad,669.799999999814,0,Low,715.800000000279
104,2,0.25,UE,1,Low,1,Sad,100,1,Sad,1338.10000000009,1,High,386.600000000093
105,2,0.25,E,1,Low,0,Happy,20,0,Happy,1315.60000000009,1,High,971.100000000093
106,2,0.25,UE,1,Low,1,Sad,60,1,Sad,944.199999999721,1,High,412.600000000093
107,2,0.25,UE,0,High,0,Happy,20,1,Sad,2530.09999999963,1,High,2387.69999999972
108,2,0.25,E,0,High,1,Sad,100,1,Sad,561,1,High,299.800000000279
109,2,0.25,E,1,Low,0,Happy,40,0,Happy,623.400000000373,1,High,532.799999999814
110,2,0.25,E,0,High,1,Sad,80,1,Sad,602.199999999721,1,High,419.699999999721
111,2,0.25,E,0,High,1,Sad,60,0,Happy,2043.20000000019,0,Low,1027.60000000009
112,2,0.25,E,1,Low,0,Happy,0,0,Happy,2902.5,1,High,715.099999999627
113,2,0.25,UE,0,High,0,Happy,40,0,Happy,1098.89999999991,1,High,603.700000000186
114,2,0.25,E,0,High,1,Sad,80,1,Sad,754.399999999907,1,High,467.400000000373
115,2,0.25,E,0,High,1,Sad,100,1,Sad,654.399999999907,1,High,426.099999999627
116,2,0.25,E,0,High,1,Sad,60,1,Sad,3203.5,1,High,764.5
117,2,0.25,E,1,Low,0,Happy,0,0,Happy,687.100000000093,1,High,403.5
118,2,0.25,E,1,Low,0,Happy,20,0,Happy,1025,1,High,723.899999999907
119,2,0.25,UE,0,High,0,Happy,0,0,Happy,2582.79999999981,1,High,500
120,2,0.25,E,0,High,1,Sad,100,1,Sad,547.5,1,High,523.799999999814
121,3,0.75,E,0,High,0,Happy,0,0,Happy,444.5,1,High,405.100000000093
122,3,0.75,E,0,High,0,Happy,40,0,Happy,918.799999999814,1,High,394.399999999907
123,3,0.75,E,0,High,0,Happy,0,0,Happy,675.5,1,High,340.199999999721
124,3,0.75,E,1,Low,1,Sad,80,1,Sad,576.600000000093,1,High,372.399999999907
125,3,0.75,E,1,Low,1,Sad,60,1,Sad,529.199999999721,1,High,499.5
126,3,0.75,UE,0,High,1,Sad,100,1,Sad,642,1,High,404.099999999627
127,3,0.75,E,0,High,0,Happy,20,0,Happy,615,1,High,516.800000000279
128,3,0.75,E,0,High,0,Happy,40,0,Happy,1381.5,1,High,524.200000000186
129,3,0.75,UE,1,Low,0,Happy,20,0,Happy,1632.89999999991,1,High,930.699999999721
130,3,0.75,E,1,Low,1,Sad,100,1,Sad,990,1,High,587.699999999721
131,3,0.75,E,0,High,0,Happy,40,0,Happy,704.099999999627,1,High,403.5
132,3,0.75,UE,1,Low,0,Happy,40,0,Happy,1011.80000000028,1,High,355.5
133,3,0.75,UE,0,High,1,Sad,60,1,Sad,1474.39999999991,0,Low,691.899999999907
134,3,0.75,E,1,Low,1,Sad,80,1,Sad,956,1,High,492
135,3,0.75,E,1,Low,1,Sad,60,1,Sad,943.5,0,Low,2035.89999999991
136,3,0.75,E,1,Low,1,Sad,60,NaN,,NaN,NaN,,NaN
137,3,0.75,E,1,Low,1,Sad,100,1,Sad,905.100000000093,1,High,411.600000000093
138,3,0.75,UE,0,High,1,Sad,80,1,Sad,612.399999999907,1,High,394.699999999721
139,3,0.75,E,0,High,0,Happy,20,0,Happy,605.300000000279,1,High,355.900000000373
140,3,0.75,E,1,Low,1,Sad,80,1,Sad,636,1,High,340.800000000279
141,3,0.75,E,1,Low,1,Sad,100,1,Sad,850,1,High,314.899999999907
142,3,0.75,E,0,High,0,Happy,0,0,Happy,559.100000000093,1,High,355.299999999814
143,3,0.75,UE,1,Low,0,Happy,0,0,Happy,856.899999999907,1,High,291.200000000186
144,3,0.75,E,0,High,0,Happy,20,0,Happy,402.700000000186,1,High,364
145,4,0.25,E,1,Low,0,Happy,0,0,Happy,461.299999999814,1,High,443.600000000093
146,4,0.25,E,1,Low,0,Happy,20,0,Happy,530,1,High,340.100000000093
147,4,0.25,UE,1,Low,1,Sad,80,1,Sad,477.899999999907,1,High,347.299999999814
148,4,0.25,UE,0,High,0,Happy,40,0,Happy,640.700000000186,1,High,355.599999999627
149,4,0.25,E,0,High,1,Sad,80,1,Sad,548.599999999627,1,High,355.199999999721
150,4,0.25,E,0,High,1,Sad,60,1,Sad,585.800000000279,1,High,403.200000000186
151,4,0.25,E,1,Low,0,Happy,0,0,Happy,489.300000000279,1,High,539.5
152,4,0.25,E,0,High,1,Sad,80,1,Sad,707.300000000279,1,High,370.5
153,4,0.25,E,1,Low,0,Happy,40,0,Happy,2197.39999999991,0,Low,637.100000000093
154,4,0.25,E,0,High,1,Sad,100,1,Sad,847.400000000373,1,High,356.100000000093
155,4,0.25,E,0,High,1,Sad,100,1,Sad,427.399999999907,1,High,402.299999999814
156,4,0.25,E,0,High,1,Sad,80,1,Sad,458.399999999907,1,High,378.600000000093
157,4,0.25,E,1,Low,0,Happy,20,0,Happy,659.299999999814,1,High,379.799999999814
158,4,0.25,UE,0,High,0,Happy,20,0,Happy,521.799999999814,1,High,284.099999999627
159,4,0.25,E,0,High,1,Sad,60,1,Sad,1093.30000000028,0,Low,611.600000000093
160,4,0.25,E,1,Low,0,Happy,40,0,Happy,732.599999999627,1,High,595.899999999907
161,4,0.25,E,1,Low,0,Happy,0,0,Happy,2030.70000000019,1,High,410.399999999907
162,4,0.25,UE,1,Low,1,Sad,60,0,Happy,2262.39999999991,1,,4001
163,4,0.25,E,0,High,1,Sad,100,1,Sad,1262.19999999972,1,High,818.800000000279
164,4,0.25,E,0,High,1,Sad,60,0,Happy,724.600000000093,1,High,347.400000000373
165,4,0.25,UE,0,High,0,Happy,0,0,Happy,628.100000000093,1,High,372.900000000373
166,4,0.25,E,1,Low,0,Happy,40,0,Happy,845.799999999814,1,High,341.5
167,4,0.25,E,1,Low,0,Happy,20,0,Happy,438.600000000093,1,High,315.100000000093
168,4,0.25,UE,1,Low,1,Sad,100,1,Sad,650,1,High,364.100000000093
169,5,0.75,E,0,High,0,Happy,20,0,Happy,615.100000000093,1,High,404.600000000093
170,5,0.75,UE,0,High,1,Sad,60,1,Sad,664.5,1,High,362.900000000373
171,5,0.75,E,0,High,0,Happy,0,0,Happy,531.399999999907,1,High,387.899999999907
172,5,0.75,E,0,High,0,Happy,40,0,Happy,1412.39999999991,0,Low,418.799999999814
173,5,0.75,E,1,Low,1,Sad,60,1,Sad,798.700000000186,1,High,699.299999999814
174,5,0.75,E,1,Low,1,Sad,80,1,Sad,727.399999999907,1,High,403.600000000093
175,5,0.75,E,1,Low,1,Sad,60,1,Sad,1225.60000000009,0,Low,1170.89999999991
176,5,0.75,E,0,High,0,Happy,20,0,Happy,1861.90000000037,1,High,386.5
177,5,0.75,E,1,Low,1,Sad,100,1,Sad,1182.69999999972,1,High,316.699999999721
178,5,0.75,UE,1,Low,0,Happy,0,0,Happy,552.800000000279,1,High,395.200000000186
179,5,0.75,E,0,High,0,Happy,20,0,Happy,1081.19999999972,0,Low,620.700000000186
180,5,0.75,UE,1,Low,0,Happy,40,0,Happy,2007.60000000009,0,Low,842.300000000279
181,5,0.75,E,1,Low,1,Sad,60,1,Sad,944.300000000279,1,High,427.799999999814
182,5,0.75,E,0,High,0,Happy,40,0,Happy,643.299999999814,1,High,356.700000000186
183,5,0.75,E,1,Low,1,Sad,80,1,Sad,741.599999999627,1,High,363.899999999907
184,5,0.75,E,1,Low,1,Sad,80,1,Sad,2186.5,1,High,523.300000000279
185,5,0.75,UE,0,High,1,Sad,80,1,Sad,617.899999999907,1,High,298.599999999627
186,5,0.75,UE,0,High,1,Sad,100,1,Sad,823.300000000279,1,High,298.899999999907
187,5,0.75,E,0,High,0,Happy,0,0,Happy,477.099999999627,1,High,372.199999999721
188,5,0.75,E,1,Low,1,Sad,100,1,Sad,576.399999999907,1,High,299.799999999814
189,5,0.75,UE,1,Low,0,Happy,20,0,Happy,438.300000000279,1,High,347
190,5,0.75,E,0,High,0,Happy,0,0,Happy,764.799999999814,1,High,324.399999999907
191,5,0.75,E,1,Low,1,Sad,100,1,Sad,1343.19999999972,1,High,587.399999999907
192,5,0.75,E,0,High,0,Happy,40,0,Happy,698.700000000186,1,High,690.800000000279
