Trial_N,Block_N,Contingency,Expectedness,Cue_idx,Cue_name,Outcome_idx,Outcome_name,Outcome_p_sad,Response_idx,Response_name,Response_RT,Confidence_idx,Confidence_name,Confidence_RT
1,1,0.75,E,1,Low,1,Sad,80,1,Sad,2122.30000000028,1,High,1707.29999999981
2,1,0.75,E,1,Low,1,Sad,100,1,Sad,1745.60000000009,1,High,795.799999999814
3,1,0.75,E,1,Low,1,Sad,80,1,Sad,1033.59999999963,1,High,1243.70000000019
4,1,0.75,E,0,High,0,Happy,20,0,Happy,851.299999999814,1,High,851.899999999907
5,1,0.75,E,0,High,0,Happy,0,0,Happy,850.100000000093,1,High,755.399999999907
6,1,0.75,UE,0,High,1,Sad,100,1,Sad,682.5,1,High,707
7,1,0.75,E,1,Low,1,Sad,60,1,Sad,2921.69999999972,0,Low,843.699999999721
8,1,0.75,E,0,High,0,Happy,20,0,Happy,1430.5,1,High,658.5
9,1,0.75,UE,1,Low,0,Happy,20,0,Happy,883.100000000093,1,High,1252.20000000019
10,1,0.75,E,1,Low,1,Sad,100,1,Sad,700.5,1,High,1059.70000000019
11,1,0.75,E,1,Low,1,Sad,60,1,Sad,687.700000000186,1,High,482.199999999721
12,1,0.75,E,0,High,0,Happy,40,0,Happy,1083.30000000028,1,High,731.600000000093
13,1,0.75,E,1,Low,1,Sad,60,1,Sad,1691.5,0,Low,892.5
14,1,0.75,E,1,Low,1,Sad,60,1,Sad,782.799999999814,0,Low,610.800000000279
15,1,0.75,E,1,Low,1,Sad,60,1,Sad,1279.39999999991,1,High,1635.60000000009
16,1,0.75,UE,0,High,1,Sad,80,1,Sad,763.200000000186,1,High,1795.19999999972
17,1,0.75,E,0,High,0,Happy,0,0,Happy,1024.69999999972,1,High,691.100000000093
18,1,0.75,E,0,High,0,Happy,20,0,Happy,718.300000000279,1,High,837.200000000186
19,1,0.75,E,1,Low,1,Sad,80,1,Sad,642.799999999814,1,High,836.100000000093
20,1,0.75,E,0,High,0,Happy,0,0,Happy,590.199999999721,1,High,460.700000000186
21,1,0.75,UE,0,High,1,Sad,100,1,Sad,652.299999999814,1,High,603.5
22,1,0.75,E,0,High,0,Happy,20,0,Happy,1699.69999999972,1,High,572.100000000093
23,1,0.75,E,1,Low,1,Sad,60,1,Sad,1024.90000000037,0,Low,930.600000000093
24,1,0.75,E,0,High,0,Happy,40,1,Sad,945.799999999814,0,Low,1612.89999999991
25,1,0.75,UE,1,Low,0,Happy,0,0,Happy,728.700000000186,1,High,675.700000000186
26,1,0.75,E,1,Low,1,Sad,80,1,Sad,682,1,High,459.599999999627
27,1,0.75,E,0,High,0,Happy,0,0,Happy,746.299999999814,1,High,531.799999999814
28,1,0.75,E,0,High,0,Happy,0,0,Happy,503.700000000186,1,High,572.100000000093
29,1,0.75,E,1,Low,1,Sad,60,1,Sad,923.899999999907,1,High,803.899999999907
30,1,0.75,E,1,Low,1,Sad,100,1,Sad,653.600000000093,1,High,506.5
31,1,0.75,UE,1,Low,0,Happy,40,0,Happy,744,1,High,564.299999999814
32,1,0.75,UE,0,High,1,Sad,100,1,Sad,553.5,1,High,459.100000000093
33,1,0.75,E,0,High,0,Happy,40,0,Happy,626.600000000093,1,High,716.699999999721
34,1,0.75,E,0,High,0,Happy,40,0,Happy,754.800000000279,1,High,410.699999999721
35,1,0.75,E,1,Low,1,Sad,80,1,Sad,558.200000000186,1,High,476.299999999814
36,1,0.75,E,1,Low,1,Sad,60,1,Sad,646.300000000279,1,High,547.5
37,1,0.75,E,0,High,0,Happy,40,0,Happy,541,1,High,620.600000000093
38,1,0.75,UE,0,High,1,Sad,80,1,Sad,721.800000000279,1,High,692.200000000186
39,1,0.75,E,1,Low,1,Sad,60,1,Sad,930.100000000093,1,High,396.799999999814
40,1,0.75,E,0,High,0,Happy,40,0,Happy,1405.39999999991,0,Low,555.399999999907
41,1,0.75,UE,1,Low,0,Happy,20,0,Happy,871.100000000093,0,Low,962
42,1,0.75,E,0,High,0,Happy,20,0,Happy,479.600000000093,1,High,547.799999999814
43,1,0.75,E,1,Low,1,Sad,100,1,Sad,698.5,1,High,563
44,1,0.75,UE,0,High,1,Sad,80,1,Sad,597.099999999627,1,High,396.700000000186
45,1,0.75,E,1,Low,1,Sad,100,1,Sad,629.299999999814,1,High,452.200000000186
46,1,0.75,E,0,High,0,Happy,0,0,Happy,942.600000000093,1,High,555
47,1,0.75,E,1,Low,1,Sad,80,1,Sad,656.800000000279,1,High,708.700000000186
48,1,0.75,UE,1,Low,0,Happy,20,0,Happy,722.800000000279,1,High,578.899999999907
49,1,0.75,E,0,High,0,Happy,0,0,Happy,670.5,1,High,483.799999999814
50,1,0.75,E,1,Low,1,Sad,80,0,Happy,612.600000000093,0,Low,1378.60000000009
51,1,0.75,E,0,High,0,Happy,20,0,Happy,614.400000000373,1,High,635.799999999814
52,1,0.75,UE,0,High,1,Sad,60,1,Sad,621.5,1,High,675.300000000279
53,1,0.75,UE,1,Low,0,Happy,0,0,Happy,857.700000000186,1,High,548.800000000279
54,1,0.75,E,1,Low,1,Sad,100,1,Sad,811.099999999627,1,High,554.700000000186
55,1,0.75,E,1,Low,1,Sad,100,1,Sad,582.399999999907,1,High,523.299999999814
56,1,0.75,E,0,High,0,Happy,0,0,Happy,685.700000000186,1,High,579.899999999907
57,1,0.75,E,1,Low,1,Sad,100,1,Sad,1045.10000000009,1,High,836.5
58,1,0.75,UE,0,High,1,Sad,100,1,Sad,489.5,1,High,580.200000000186
59,1,0.75,E,1,Low,1,Sad,80,1,Sad,607.900000000373,1,High,491.200000000186
60,1,0.75,E,0,High,0,Happy,20,0,Happy,974.5,1,High,908.400000000373
61,1,0.75,UE,1,Low,0,Happy,40,0,Happy,1244.29999999981,1,High,644.100000000093
62,1,0.75,UE,1,Low,0,Happy,20,0,Happy,1042.5,1,High,410.800000000279
63,1,0.75,E,0,High,0,Happy,20,0,Happy,596.100000000093,1,High,506.600000000093
64,1,0.75,E,1,Low,1,Sad,60,0,Happy,1758.59999999963,0,Low,435.899999999907
65,1,0.75,E,0,High,0,Happy,40,0,Happy,1125.10000000009,1,High,668.599999999627
66,1,0.75,E,1,Low,1,Sad,80,1,Sad,569.399999999907,1,High,611.600000000093
67,1,0.75,UE,1,Low,0,Happy,0,0,Happy,584.700000000186,1,High,618.300000000279
68,1,0.75,E,0,High,0,Happy,40,0,Happy,895.5,1,High,1059.20000000019
69,1,0.75,E,0,High,0,Happy,40,0,Happy,619.800000000279,1,High,443.399999999907
70,1,0.75,E,0,High,0,Happy,0,0,Happy,1055.19999999972,1,High,379
71,1,0.75,UE,1,Low,0,Happy,0,0,Happy,622.100000000093,1,High,459.899999999907
72,1,0.75,E,1,Low,1,Sad,60,1,Sad,3850.20000000019,0,Low,1099.5
73,1,0.75,E,0,High,0,Happy,40,0,Happy,664.200000000186,1,High,1347.40000000037
74,1,0.75,E,1,Low,1,Sad,100,1,Sad,939.800000000279,1,High,844.199999999721
75,1,0.75,E,1,Low,1,Sad,100,1,Sad,635.399999999907,1,High,436.600000000093
76,1,0.75,E,0,High,0,Happy,20,0,Happy,794.399999999907,1,High,467.899999999907
77,1,0.75,UE,0,High,1,Sad,60,1,Sad,1665.89999999991,0,Low,1027.60000000009
78,1,0.75,E,0,High,0,Happy,0,0,Happy,593.299999999814,1,High,378.400000000373
79,1,0.75,E,0,High,0,Happy,40,0,Happy,1699.69999999972,0,Low,451.899999999907
80,1,0.75,UE,0,High,1,Sad,60,1,Sad,1053.79999999981,0,Low,836.700000000186
81,1,0.75,E,0,High,0,Happy,40,0,Happy,883.099999999627,1,High,516.899999999907
82,1,0.75,UE,0,High,1,Sad,80,1,Sad,853.100000000093,1,High,452.199999999721
83,1,0.75,E,0,High,0,Happy,0,0,Happy,531.899999999907,1,High,443.799999999814
84,1,0.75,E,0,High,0,Happy,20,0,Happy,993.400000000373,1,High,338.299999999814
85,1,0.75,E,1,Low,1,Sad,100,1,Sad,670.100000000093,1,High,458.900000000373
86,1,0.75,E,1,Low,1,Sad,100,1,Sad,667.599999999627,1,High,427.100000000093
87,1,0.75,UE,1,Low,0,Happy,40,0,Happy,659.199999999721,1,High,602
88,1,0.75,E,1,Low,1,Sad,80,1,Sad,843.700000000186,1,High,691.200000000186
89,1,0.75,E,0,High,0,Happy,0,0,Happy,620.199999999721,1,High,380.700000000186
90,1,0.75,UE,0,High,1,Sad,60,1,Sad,1095.79999999981,0,Low,571.399999999907
91,1,0.75,E,1,Low,1,Sad,60,1,Sad,709.799999999814,0,Low,1364.5
92,1,0.75,E,1,Low,1,Sad,80,1,Sad,990.899999999907,0,Low,1131.89999999991
93,1,0.75,E,0,High,0,Happy,20,0,Happy,847.699999999721,1,High,501
94,1,0.75,E,0,High,0,Happy,20,0,Happy,440.900000000373,1,High,1555.29999999981
95,1,0.75,UE,1,Low,0,Happy,40,0,Happy,1094.39999999991,1,High,586.5
96,1,0.75,E,1,Low,1,Sad,80,1,Sad,772.399999999907,1,High,779.700000000186
97,2,0.25,E,1,Low,0,Happy,0,0,Happy,548,1,High,508.900000000373
98,2,0.25,UE,1,Low,1,Sad,80,1,Sad,1020.29999999981,1,High,836.700000000186
99,2,0.25,E,1,Low,0,Happy,40,0,Happy,1762.19999999972,0,Low,763.900000000373
100,2,0.25,E,1,Low,0,Happy,40,1,Sad,2214.69999999972,0,Low,667.899999999907
101,2,0.25,E,0,High,1,Sad,60,1,Sad,1057.89999999991,0,Low,611.599999999627
102,2,0.25,E,1,Low,0,Happy,20,0,Happy,943.600000000093,1,High,1370.89999999991
103,2,0.25,E,0,High,1,Sad,80,1,Sad,689.199999999721,1,High,427.800000000279
104,2,0.25,UE,1,Low,1,Sad,100,1,Sad,1000.10000000009,1,High,507.800000000279
105,2,0.25,E,1,Low,0,Happy,20,0,Happy,1266.70000000019,1,High,524.199999999721
106,2,0.25,UE,1,Low,1,Sad,60,0,Happy,2868.80000000028,0,Low,723.700000000186
107,2,0.25,UE,0,High,0,Happy,20,0,Happy,1156,1,High,571.899999999907
108,2,0.25,E,0,High,1,Sad,100,1,Sad,921.800000000279,1,High,419.799999999814
109,2,0.25,E,1,Low,0,Happy,40,0,Happy,725.5,1,High,444.300000000279
110,2,0.25,E,0,High,1,Sad,80,1,Sad,1071.30000000028,1,High,1266
111,2,0.25,E,0,High,1,Sad,60,1,Sad,1066.5,1,High,779.899999999907
112,2,0.25,E,1,Low,0,Happy,0,0,Happy,743,1,High,428.400000000373
113,2,0.25,UE,0,High,0,Happy,40,0,Happy,660.100000000093,1,High,355.899999999907
114,2,0.25,E,0,High,1,Sad,80,1,Sad,719.300000000279,1,High,635.099999999627
115,2,0.25,E,0,High,1,Sad,100,1,Sad,1005,1,High,931.799999999814
116,2,0.25,E,0,High,1,Sad,60,0,Happy,2162.30000000028,0,Low,468
117,2,0.25,E,1,Low,0,Happy,0,0,Happy,690.300000000279,1,High,348.399999999907
118,2,0.25,E,1,Low,0,Happy,20,0,Happy,1436.69999999972,1,High,652.299999999814
119,2,0.25,UE,0,High,0,Happy,0,0,Happy,591.800000000279,1,High,355.5
120,2,0.25,E,0,High,1,Sad,100,1,Sad,497.399999999907,1,High,634.799999999814
121,3,0.75,E,0,High,0,Happy,0,0,Happy,776.700000000186,1,High,451.600000000093
122,3,0.75,E,0,High,0,Happy,40,0,Happy,552.399999999907,1,High,476
123,3,0.75,E,0,High,0,Happy,0,0,Happy,465.599999999627,1,High,403.600000000093
124,3,0.75,E,1,Low,1,Sad,80,1,Sad,911.899999999907,1,High,723.100000000093
125,3,0.75,E,1,Low,1,Sad,60,1,Sad,711.899999999907,1,High,452.700000000186
126,3,0.75,UE,0,High,1,Sad,100,1,Sad,718.100000000093,1,High,539.600000000093
127,3,0.75,E,0,High,0,Happy,20,0,Happy,562.399999999907,1,High,411.899999999907
128,3,0.75,E,0,High,0,Happy,40,0,Happy,799.5,1,High,411.300000000279
129,3,0.75,UE,1,Low,0,Happy,20,0,Happy,532.599999999627,1,High,483.600000000093
130,3,0.75,E,1,Low,1,Sad,100,1,Sad,685.200000000186,1,High,419.400000000373
131,3,0.75,E,0,High,0,Happy,40,0,Happy,698.5,0,Low,923.299999999814
132,3,0.75,UE,1,Low,0,Happy,40,0,Happy,962.899999999907,1,High,1075.69999999972
133,3,0.75,UE,0,High,1,Sad,60,1,Sad,1333.60000000009,0,Low,523.899999999907
134,3,0.75,E,1,Low,1,Sad,80,1,Sad,963.599999999627,1,High,643.799999999814
135,3,0.75,E,1,Low,1,Sad,60,1,Sad,1906,0,Low,692.099999999627
136,3,0.75,E,1,Low,1,Sad,60,1,Sad,1201.79999999981,0,Low,628.100000000093
137,3,0.75,E,1,Low,1,Sad,100,1,Sad,680.900000000373,1,High,482.100000000093
138,3,0.75,UE,0,High,1,Sad,80,1,Sad,932.200000000186,1,High,346.200000000186
139,3,0.75,E,0,High,0,Happy,20,0,Happy,537.400000000373,1,High,347.799999999814
140,3,0.75,E,1,Low,1,Sad,80,1,Sad,610.5,1,High,339.899999999907
141,3,0.75,E,1,Low,1,Sad,100,1,Sad,992.899999999907,1,High,427.400000000373
142,3,0.75,E,0,High,0,Happy,0,0,Happy,477.100000000093,1,High,395.699999999721
143,3,0.75,UE,1,Low,0,Happy,0,0,Happy,592.799999999814,1,High,355.899999999907
144,3,0.75,E,0,High,0,Happy,20,0,Happy,443.299999999814,1,High,387.599999999627
145,4,0.25,E,1,Low,0,Happy,0,0,Happy,465.799999999814,1,High,355.100000000093
146,4,0.25,E,1,Low,0,Happy,20,0,Happy,427.299999999814,1,High,459.5
147,4,0.25,UE,1,Low,1,Sad,80,1,Sad,548.800000000279,1,High,395.899999999907
148,4,0.25,UE,0,High,0,Happy,40,0,Happy,548.799999999814,1,High,426.599999999627
149,4,0.25,E,0,High,1,Sad,80,1,Sad,856.700000000186,1,High,580
150,4,0.25,E,0,High,1,Sad,60,1,Sad,1082.19999999972,1,High,402.899999999907
151,4,0.25,E,1,Low,0,Happy,0,0,Happy,594.399999999907,1,High,411.699999999721
152,4,0.25,E,0,High,1,Sad,80,1,Sad,709.100000000093,1,High,418.5
153,4,0.25,E,1,Low,0,Happy,40,0,Happy,599.300000000279,1,High,531.200000000186
154,4,0.25,E,0,High,1,Sad,100,1,Sad,531.600000000093,1,High,437.399999999907
155,4,0.25,E,0,High,1,Sad,100,1,Sad,687.700000000186,1,High,420.5
156,4,0.25,E,0,High,1,Sad,80,1,Sad,638.399999999907,1,High,330.5
157,4,0.25,E,1,Low,0,Happy,20,0,Happy,531,1,High,491.899999999907
158,4,0.25,UE,0,High,0,Happy,20,0,Happy,449.099999999627,1,High,372
159,4,0.25,E,0,High,1,Sad,60,1,Sad,586.799999999814,1,High,547
160,4,0.25,E,1,Low,0,Happy,40,0,Happy,577.600000000093,1,High,466.300000000279
161,4,0.25,E,1,Low,0,Happy,0,0,Happy,1175.30000000028,1,High,611.099999999627
162,4,0.25,UE,1,Low,1,Sad,60,1,Sad,738.199999999721,0,Low,1036.59999999963
163,4,0.25,E,0,High,1,Sad,100,1,Sad,789.799999999814,1,High,355.699999999721
164,4,0.25,E,0,High,1,Sad,60,1,Sad,1043.39999999991,1,High,906.700000000186
165,4,0.25,UE,0,High,0,Happy,0,0,Happy,568,1,High,675.399999999907
166,4,0.25,E,1,Low,0,Happy,40,0,Happy,1471,0,Low,611.899999999907
167,4,0.25,E,1,Low,0,Happy,20,0,Happy,939.600000000093,1,High,323.600000000093
168,4,0.25,UE,1,Low,1,Sad,100,1,Sad,850.199999999721,1,High,459.800000000279
169,5,0.75,E,0,High,0,Happy,20,0,Happy,948.299999999814,1,High,394.899999999907
170,5,0.75,UE,0,High,1,Sad,60,1,Sad,654.800000000279,1,High,875.699999999721
171,5,0.75,E,0,High,0,Happy,0,0,Happy,868,1,High,395.599999999627
172,5,0.75,E,0,High,0,Happy,40,0,Happy,764.5,1,High,811.899999999907
173,5,0.75,E,1,Low,1,Sad,60,0,Happy,2169.29999999981,0,Low,1299.60000000009
174,5,0.75,E,1,Low,1,Sad,80,1,Sad,756.700000000186,1,High,940.5
175,5,0.75,E,1,Low,1,Sad,60,1,Sad,760.799999999814,1,High,571.800000000279
176,5,0.75,E,0,High,0,Happy,20,0,Happy,654.600000000093,1,High,484.300000000279
177,5,0.75,E,1,Low,1,Sad,100,1,Sad,628.799999999814,0,Low,1235.79999999981
178,5,0.75,UE,1,Low,0,Happy,0,0,Happy,790.5,1,High,395.800000000279
179,5,0.75,E,0,High,0,Happy,20,0,Happy,672.899999999907,1,High,378.899999999907
180,5,0.75,UE,1,Low,0,Happy,40,0,Happy,1583.89999999991,1,High,412.299999999814
181,5,0.75,E,1,Low,1,Sad,60,1,Sad,1130.69999999972,1,High,923.399999999907
182,5,0.75,E,0,High,0,Happy,40,0,Happy,611.399999999907,1,High,403.199999999721
183,5,0.75,E,1,Low,1,Sad,80,0,Happy,1366.29999999981,0,Low,2290.5
184,5,0.75,E,1,Low,1,Sad,80,1,Sad,754.899999999907,1,High,860.300000000279
185,5,0.75,UE,0,High,1,Sad,80,1,Sad,429.200000000186,1,High,442.799999999814
186,5,0.75,UE,0,High,1,Sad,100,1,Sad,1397.79999999981,1,High,698.5
187,5,0.75,E,0,High,0,Happy,0,0,Happy,497.700000000186,1,High,498.800000000279
188,5,0.75,E,1,Low,1,Sad,100,1,Sad,1386,1,High,387.699999999721
189,5,0.75,UE,1,Low,0,Happy,20,0,Happy,603,1,High,682.799999999814
190,5,0.75,E,0,High,0,Happy,0,0,Happy,1630.60000000009,1,High,3395.69999999972
191,5,0.75,E,1,Low,1,Sad,100,1,Sad,1914.09999999963,1,High,587.5
192,5,0.75,E,0,High,0,Happy,40,0,Happy,709.600000000093,1,High,1212
