Trial_N,Block_N,Contingency,Expectedness,Cue_idx,Cue_name,Outcome_idx,Outcome_name,Outcome_p_sad,Response_idx,Response_name,Response_RT,Confidence_idx,Confidence_name,Confidence_RT
1,1,0.75,E,1,Low,1,Sad,80,1,Sad,875.5,1,High,757.400000095367
2,1,0.75,E,1,Low,1,Sad,100,1,Sad,496.200000047684,1,High,222
3,1,0.75,E,1,Low,1,Sad,80,1,Sad,340.400000095367,1,High,215.899999856949
4,1,0.75,E,0,High,0,Happy,20,0,Happy,366.799999952316,1,High,226.299999952316
5,1,0.75,E,0,High,0,Happy,0,0,Happy,232.900000095367,1,High,233.299999952316
6,1,0.75,UE,0,High,1,Sad,100,1,Sad,494.399999856949,1,High,220.299999952316
7,1,0.75,E,1,Low,1,Sad,60,1,Sad,1806.29999995232,0,Low,284.300000190735
8,1,0.75,E,0,High,0,Happy,20,0,Happy,377.099999904633,1,High,196.700000047684
9,1,0.75,UE,1,Low,0,Happy,20,0,Happy,554.699999809265,1,High,180.800000190735
10,1,0.75,E,1,Low,1,Sad,100,1,Sad,433.700000047684,1,High,208.299999952316
11,1,0.75,E,1,Low,1,Sad,60,1,Sad,1431.10000014305,0,Low,481.900000095367
12,1,0.75,E,0,High,0,Happy,40,0,Happy,398,1,High,185.699999809265
13,1,0.75,E,1,Low,1,Sad,60,1,Sad,1109,0,Low,307.599999904633
14,1,0.75,E,1,Low,1,Sad,60,0,Happy,1351.5,0,Low,683.399999856949
15,1,0.75,E,1,Low,1,Sad,60,0,Happy,1061.20000004768,1,High,200.899999856949
16,1,0.75,UE,0,High,1,Sad,80,1,Sad,956.900000095367,0,Low,228.900000095367
17,1,0.75,E,0,High,0,Happy,0,0,Happy,560.299999952316,1,High,198.5
18,1,0.75,E,0,High,0,Happy,20,0,Happy,277,1,High,187.900000095367
19,1,0.75,E,1,Low,1,Sad,80,1,Sad,525.5,0,Low,279.299999952316
20,1,0.75,E,0,High,0,Happy,0,0,Happy,525.100000143051,1,High,208.400000095367
21,1,0.75,UE,0,High,1,Sad,100,1,Sad,607.200000047684,1,High,171.5
22,1,0.75,E,0,High,0,Happy,20,0,Happy,447.799999952316,1,High,210
23,1,0.75,E,1,Low,1,Sad,60,1,Sad,559.599999904633,0,Low,254.300000190735
24,1,0.75,E,0,High,0,Happy,40,0,Happy,483,1,High,206.299999952316
25,1,0.75,UE,1,Low,0,Happy,0,0,Happy,365.200000047684,1,High,216.5
26,1,0.75,E,1,Low,1,Sad,80,1,Sad,527.200000047684,0,Low,248.099999904633
27,1,0.75,E,0,High,0,Happy,0,0,Happy,361.099999904633,1,High,187.699999809265
28,1,0.75,E,0,High,0,Happy,0,0,Happy,163.5,1,High,186
29,1,0.75,E,1,Low,1,Sad,60,1,Sad,414.200000047684,1,High,200.099999904633
30,1,0.75,E,1,Low,1,Sad,100,1,Sad,795.700000047684,1,High,192.5
31,1,0.75,UE,1,Low,0,Happy,40,0,Happy,415.699999809265,1,High,191.5
32,1,0.75,UE,0,High,1,Sad,100,1,Sad,401.300000190735,1,High,200
33,1,0.75,E,0,High,0,Happy,40,0,Happy,384.200000047684,1,High,164
34,1,0.75,E,0,High,0,Happy,40,0,Happy,209.099999904633,1,High,187.800000190735
35,1,0.75,E,1,Low,1,Sad,80,1,Sad,351.299999952316,1,High,194.299999952316
36,1,0.75,E,1,Low,1,Sad,60,1,Sad,646.600000143051,1,High,177.900000095367
37,1,0.75,E,0,High,0,Happy,40,0,Happy,663.400000095367,1,High,165.700000047684
38,1,0.75,UE,0,High,1,Sad,80,1,Sad,438.099999904633,1,High,199.100000143051
39,1,0.75,E,1,Low,1,Sad,60,1,Sad,561.799999952316,1,High,163.600000143051
40,1,0.75,E,0,High,0,Happy,40,0,Happy,345.100000143051,1,High,169
41,1,0.75,UE,1,Low,0,Happy,20,0,Happy,543.400000095367,1,High,189.899999856949
42,1,0.75,E,0,High,0,Happy,20,0,Happy,297.099999904633,1,High,187.599999904633
43,1,0.75,E,1,Low,1,Sad,100,1,Sad,432.5,1,High,160.5
44,1,0.75,UE,0,High,1,Sad,80,1,Sad,441.200000047684,1,High,146.200000047684
45,1,0.75,E,1,Low,1,Sad,100,1,Sad,892.399999856949,1,High,152.099999904633
46,1,0.75,E,0,High,0,Happy,0,0,Happy,392.700000047684,1,High,189.200000047684
47,1,0.75,E,1,Low,1,Sad,80,1,Sad,476.700000047684,1,High,149.799999952316
48,1,0.75,UE,1,Low,0,Happy,20,0,Happy,401.699999809265,1,High,134.600000143051
49,1,0.75,E,0,High,0,Happy,0,0,Happy,371.099999904633,1,High,127.600000143051
50,1,0.75,E,1,Low,1,Sad,80,1,Sad,896.400000095367,1,High,138.400000095367
51,1,0.75,E,0,High,0,Happy,20,0,Happy,245.900000095367,1,High,145.299999952316
52,1,0.75,UE,0,High,1,Sad,60,1,Sad,1735.20000004768,0,Low,806.700000047684
53,1,0.75,UE,1,Low,0,Happy,0,0,Happy,495.799999952316,1,High,169.699999809265
54,1,0.75,E,1,Low,1,Sad,100,1,Sad,472.200000047684,1,High,138
55,1,0.75,E,1,Low,1,Sad,100,1,Sad,1874.59999990463,0,Low,476.299999952316
56,1,0.75,E,0,High,0,Happy,0,0,Happy,3593.79999995232,0,Low,485.099999904633
57,1,0.75,E,1,Low,1,Sad,100,1,Sad,1562.5,0,Low,491.900000095367
58,1,0.75,UE,0,High,1,Sad,100,1,Sad,728.900000095367,1,High,185.300000190735
59,1,0.75,E,1,Low,1,Sad,80,1,Sad,580.900000095367,1,High,247.699999809265
60,1,0.75,E,0,High,0,Happy,20,0,Happy,426.099999904633,1,High,303.899999856949
61,1,0.75,UE,1,Low,0,Happy,40,0,Happy,446.200000047684,1,High,212.900000095367
62,1,0.75,UE,1,Low,0,Happy,20,0,Happy,1591.90000009537,1,High,974.099999904633
63,1,0.75,E,0,High,0,Happy,20,0,Happy,614.099999904633,1,High,194.5
64,1,0.75,E,1,Low,1,Sad,60,1,Sad,630.599999904633,1,High,507.900000095367
65,1,0.75,E,0,High,0,Happy,40,0,Happy,457.900000095367,1,High,202.799999952316
66,1,0.75,E,1,Low,1,Sad,80,1,Sad,537,1,High,242.099999904633
67,1,0.75,UE,1,Low,0,Happy,0,0,Happy,382.400000095367,1,High,210.200000047684
68,1,0.75,E,0,High,0,Happy,40,1,Sad,902.200000047684,0,Low,249.800000190735
69,1,0.75,E,0,High,0,Happy,40,0,Happy,1411.70000004768,0,Low,220.700000047684
70,1,0.75,E,0,High,0,Happy,0,0,Happy,498.199999809265,1,High,164.200000047684
71,1,0.75,UE,1,Low,0,Happy,0,0,Happy,433.600000143051,1,High,201.900000095367
72,1,0.75,E,1,Low,1,Sad,60,1,Sad,555.600000143051,1,High,144.399999856949
73,1,0.75,E,0,High,0,Happy,40,0,Happy,905.700000047684,0,Low,194.200000047684
74,1,0.75,E,1,Low,1,Sad,100,1,Sad,561.399999856949,1,High,186.5
75,1,0.75,E,1,Low,1,Sad,100,1,Sad,866,0,Low,230.299999952316
76,1,0.75,E,0,High,0,Happy,20,0,Happy,538.100000143051,1,High,196.299999952316
77,1,0.75,UE,0,High,1,Sad,60,1,Sad,1272.20000004768,0,Low,236
78,1,0.75,E,0,High,0,Happy,0,0,Happy,446.599999904633,1,High,169.700000047684
79,1,0.75,E,0,High,0,Happy,40,1,Sad,352.600000143051,0,Low,229.400000095367
80,1,0.75,UE,0,High,1,Sad,60,1,Sad,1177.09999990463,0,Low,398.099999904633
81,1,0.75,E,0,High,0,Happy,40,0,Happy,385.800000190735,1,High,235.899999856949
82,1,0.75,UE,0,High,1,Sad,80,1,Sad,544.799999952316,1,High,160.100000143051
83,1,0.75,E,0,High,0,Happy,0,0,Happy,328.099999904633,1,High,247.599999904633
84,1,0.75,E,0,High,0,Happy,20,0,Happy,237.400000095367,1,High,228.699999809265
85,1,0.75,E,1,Low,1,Sad,100,1,Sad,463.5,1,High,200.200000047684
86,1,0.75,E,1,Low,1,Sad,100,1,Sad,325.400000095367,1,High,336
87,1,0.75,UE,1,Low,0,Happy,40,0,Happy,516.400000095367,1,High,188.5
88,1,0.75,E,1,Low,1,Sad,80,1,Sad,403.400000095367,1,High,171.700000047684
89,1,0.75,E,0,High,0,Happy,0,0,Happy,369.700000047684,1,High,158.200000047684
90,1,0.75,UE,0,High,1,Sad,60,1,Sad,406.599999904633,1,High,200
91,1,0.75,E,1,Low,1,Sad,60,1,Sad,1033.5,0,Low,208.100000143051
92,1,0.75,E,1,Low,1,Sad,80,0,Happy,874.900000095367,1,High,177.600000143051
93,1,0.75,E,0,High,0,Happy,20,0,Happy,1506,1,High,146.5
94,1,0.75,E,0,High,0,Happy,20,0,Happy,253.900000095367,1,High,129.599999904633
95,1,0.75,UE,1,Low,0,Happy,40,0,Happy,1003,1,High,153.600000143051
96,1,0.75,E,1,Low,1,Sad,80,1,Sad,930.800000190735,0,Low,918.299999952316
97,2,0.25,E,1,Low,0,Happy,0,0,Happy,909.900000095367,0,Low,124.400000095367
98,2,0.25,UE,1,Low,1,Sad,80,1,Sad,2152.10000014305,0,Low,627.599999904633
99,2,0.25,E,1,Low,0,Happy,40,0,Happy,652.700000047684,1,High,144.700000047684
100,2,0.25,E,1,Low,0,Happy,40,0,Happy,562.5,1,High,149.799999952316
101,2,0.25,E,0,High,1,Sad,60,1,Sad,325.600000143051,1,High,183.199999809265
102,2,0.25,E,1,Low,0,Happy,20,0,Happy,472.599999904633,1,High,194.200000047684
103,2,0.25,E,0,High,1,Sad,80,0,Happy,541.399999856949,0,Low,270.700000047684
104,2,0.25,UE,1,Low,1,Sad,100,1,Sad,1802.80000019073,1,High,160.100000143051
105,2,0.25,E,1,Low,0,Happy,20,0,Happy,841.5,1,High,364.5
106,2,0.25,UE,1,Low,1,Sad,60,1,Sad,1016.70000004768,0,Low,198.399999856949
107,2,0.25,UE,0,High,0,Happy,20,0,Happy,406.799999952316,1,High,1014.40000009537
108,2,0.25,E,0,High,1,Sad,100,1,Sad,1663.70000004768,1,High,224.100000143051
109,2,0.25,E,1,Low,0,Happy,40,0,Happy,423,1,High,146.100000143051
110,2,0.25,E,0,High,1,Sad,80,1,Sad,801.299999952316,0,Low,165.900000095367
111,2,0.25,E,0,High,1,Sad,60,1,Sad,236.299999952316,0,Low,136.200000047684
112,2,0.25,E,1,Low,0,Happy,0,1,Sad,284.799999952316,0,Low,147.900000095367
113,2,0.25,UE,0,High,0,Happy,40,1,Sad,993.600000143051,0,Low,158.199999809265
114,2,0.25,E,0,High,1,Sad,80,1,Sad,269.799999952316,0,Low,127.599999904633
115,2,0.25,E,0,High,1,Sad,100,1,Sad,188.299999952316,0,Low,121.799999952316
116,2,0.25,E,0,High,1,Sad,60,0,Happy,427.599999904633,1,High,112.5
117,2,0.25,E,1,Low,0,Happy,0,0,Happy,444.300000190735,1,High,143.5
118,2,0.25,E,1,Low,0,Happy,20,0,Happy,174.200000047684,1,High,251.900000095367
119,2,0.25,UE,0,High,0,Happy,0,0,Happy,214.199999809265,1,High,104
120,2,0.25,E,0,High,1,Sad,100,0,Happy,186.899999856949,1,High,109.299999952316
121,3,0.75,E,0,High,0,Happy,0,0,Happy,517.799999952316,1,High,134
122,3,0.75,E,0,High,0,Happy,40,0,Happy,138,1,High,141.200000047684
123,3,0.75,E,0,High,0,Happy,0,0,Happy,193.700000047684,1,High,164.200000047684
124,3,0.75,E,1,Low,1,Sad,80,1,Sad,326.200000047684,1,High,143.200000047684
125,3,0.75,E,1,Low,1,Sad,60,1,Sad,186.400000095367,1,High,84.7999999523163
126,3,0.75,UE,0,High,1,Sad,100,1,Sad,314.700000047684,1,High,122.200000047684
127,3,0.75,E,0,High,0,Happy,20,0,Happy,403.300000190735,1,High,150.199999809265
128,3,0.75,E,0,High,0,Happy,40,0,Happy,278.099999904633,1,High,138.100000143051
129,3,0.75,UE,1,Low,0,Happy,20,1,Sad,206.700000047684,1,High,154.200000047684
130,3,0.75,E,1,Low,1,Sad,100,1,Sad,488,1,High,38.2000000476837
131,3,0.75,E,0,High,0,Happy,40,0,Happy,484.200000047684,1,High,117.699999809265
132,3,0.75,UE,1,Low,0,Happy,40,0,Happy,391.200000047684,0,Low,1149.29999995232
133,3,0.75,UE,0,High,1,Sad,60,1,Sad,1315.10000014305,0,Low,206.099999904633
134,3,0.75,E,1,Low,1,Sad,80,1,Sad,867.399999856949,1,High,496
135,3,0.75,E,1,Low,1,Sad,60,1,Sad,785.699999809265,1,High,205.899999856949
136,3,0.75,E,1,Low,1,Sad,60,1,Sad,586.900000095367,0,Low,559.800000190735
137,3,0.75,E,1,Low,1,Sad,100,1,Sad,505.200000047684,1,High,207.899999856949
138,3,0.75,UE,0,High,1,Sad,80,1,Sad,635.700000047684,1,High,120
139,3,0.75,E,0,High,0,Happy,20,0,Happy,557.200000047684,1,High,143.700000047684
140,3,0.75,E,1,Low,1,Sad,80,0,Happy,319,1,High,114.5
141,3,0.75,E,1,Low,1,Sad,100,1,Sad,1142.20000004768,1,High,205.700000047684
142,3,0.75,E,0,High,0,Happy,0,0,Happy,587.100000143051,1,High,167.699999809265
143,3,0.75,UE,1,Low,0,Happy,0,0,Happy,1250.20000004768,1,High,134.200000047684
144,3,0.75,E,0,High,0,Happy,20,0,Happy,488.100000143051,1,High,151.899999856949
145,4,0.25,E,1,Low,0,Happy,0,1,Sad,2340.29999995232,0,Low,221.700000047684
146,4,0.25,E,1,Low,0,Happy,20,1,Sad,543.799999952316,0,Low,116.5
147,4,0.25,UE,1,Low,1,Sad,80,0,Happy,412.099999904633,0,Low,846.799999952316
148,4,0.25,UE,0,High,0,Happy,40,1,Sad,614,0,Low,650.099999904633
149,4,0.25,E,0,High,1,Sad,80,0,Happy,378.5,0,Low,154.099999904633
150,4,0.25,E,0,High,1,Sad,60,1,Sad,1466.89999985695,0,Low,148.200000047684
151,4,0.25,E,1,Low,0,Happy,0,0,Happy,449.299999952316,0,Low,105.800000190735
152,4,0.25,E,0,High,1,Sad,80,1,Sad,146.5,0,Low,420.200000047684
153,4,0.25,E,1,Low,0,Happy,40,0,Happy,814.600000143051,0,Low,263.299999952316
154,4,0.25,E,0,High,1,Sad,100,1,Sad,484.700000047684,1,High,225.200000047684
155,4,0.25,E,0,High,1,Sad,100,1,Sad,871.700000047684,1,High,622.299999952316
156,4,0.25,E,0,High,1,Sad,80,1,Sad,429.600000143051,1,High,271.799999952316
157,4,0.25,E,1,Low,0,Happy,20,0,Happy,622,1,High,191.899999856949
158,4,0.25,UE,0,High,0,Happy,20,0,Happy,292.5,1,High,142.599999904633
159,4,0.25,E,0,High,1,Sad,60,1,Sad,410.5,1,High,135.5
160,4,0.25,E,1,Low,0,Happy,40,0,Happy,1117.30000019073,1,High,164.5
161,4,0.25,E,1,Low,0,Happy,0,0,Happy,1262,1,High,374.100000143051
162,4,0.25,UE,1,Low,1,Sad,60,1,Sad,564.700000047684,1,High,140.299999952316
163,4,0.25,E,0,High,1,Sad,100,0,Happy,367.099999904633,1,High,143.799999952316
164,4,0.25,E,0,High,1,Sad,60,0,Happy,219.399999856949,1,High,144.700000047684
165,4,0.25,UE,0,High,0,Happy,0,0,Happy,1168.40000009537,0,Low,385.599999904633
166,4,0.25,E,1,Low,0,Happy,40,0,Happy,690.700000047684,1,High,376
167,4,0.25,E,1,Low,0,Happy,20,0,Happy,2454.09999990463,1,High,336.200000047684
168,4,0.25,UE,1,Low,1,Sad,100,0,Happy,819.299999952316,0,Low,668.099999904633
169,5,0.75,E,0,High,0,Happy,20,0,Happy,513.100000143051,0,Low,489.900000095367
170,5,0.75,UE,0,High,1,Sad,60,0,Happy,670.700000047684,0,Low,596.799999952316
171,5,0.75,E,0,High,0,Happy,0,0,Happy,565.399999856949,0,Low,732.399999856949
172,5,0.75,E,0,High,0,Happy,40,0,Happy,598.400000095367,0,Low,238
173,5,0.75,E,1,Low,1,Sad,60,0,Happy,531.300000190735,0,Low,213.599999904633
174,5,0.75,E,1,Low,1,Sad,80,0,Happy,407,0,Low,157.299999952316
175,5,0.75,E,1,Low,1,Sad,60,1,Sad,539.199999809265,0,Low,118
176,5,0.75,E,0,High,0,Happy,20,0,Happy,404.5,0,Low,136.099999904633
177,5,0.75,E,1,Low,1,Sad,100,1,Sad,1012.79999995232,1,High,80
178,5,0.75,UE,1,Low,0,Happy,0,1,Sad,403.200000047684,1,High,95.7000000476837
179,5,0.75,E,0,High,0,Happy,20,0,Happy,307,1,High,116.399999856949
180,5,0.75,UE,1,Low,0,Happy,40,1,Sad,470.100000143051,1,High,87.5
181,5,0.75,E,1,Low,1,Sad,60,1,Sad,475,1,High,106.400000095367
182,5,0.75,E,0,High,0,Happy,40,0,Happy,340,1,High,116
183,5,0.75,E,1,Low,1,Sad,80,1,Sad,409.099999904633,1,High,178
184,5,0.75,E,1,Low,1,Sad,80,1,Sad,780.5,1,High,193.699999809265
185,5,0.75,UE,0,High,1,Sad,80,1,Sad,584.200000047684,1,High,191.700000047684
186,5,0.75,UE,0,High,1,Sad,100,1,Sad,1660.5,1,High,148.299999952316
187,5,0.75,E,0,High,0,Happy,0,0,Happy,438.299999952316,1,High,152
188,5,0.75,E,1,Low,1,Sad,100,1,Sad,544.100000143051,1,High,138.099999904633
189,5,0.75,UE,1,Low,0,Happy,20,0,Happy,819.799999952316,1,High,130
190,5,0.75,E,0,High,0,Happy,0,0,Happy,496.599999904633,1,High,185.399999856949
191,5,0.75,E,1,Low,1,Sad,100,1,Sad,392,1,High,114.200000047684
192,5,0.75,E,0,High,0,Happy,40,0,Happy,944,1,High,132.400000095367
