Trial_N,Block_N,Contingency,Expectedness,Cue_idx,Cue_name,Outcome_idx,Outcome_name,Outcome_p_sad,Response_idx,Response_name,Response_RT,Confidence_idx,Confidence_name,Confidence_RT
1,1,0.75,E,1,Low,1,Sad,80,1,Sad,1413.09999996424,1,High,903.899999976158
2,1,0.75,E,1,Low,1,Sad,100,1,Sad,679.299999952316,1,High,729.199999988079
3,1,0.75,E,1,Low,1,Sad,80,1,Sad,477.100000023842,1,High,784.5
4,1,0.75,E,0,High,0,Happy,20,0,Happy,707.700000047684,1,High,587.5
5,1,0.75,E,0,High,0,Happy,0,0,Happy,510.5,1,High,583.800000011921
6,1,0.75,UE,0,High,1,Sad,100,1,Sad,569.5,1,High,542
7,1,0.75,E,1,Low,1,Sad,60,1,Sad,547,1,High,556.300000011921
8,1,0.75,E,0,High,0,Happy,20,0,Happy,631.800000011921,1,High,578.899999976158
9,1,0.75,UE,1,Low,0,Happy,20,0,Happy,539.300000011921,1,High,670.5
10,1,0.75,E,1,Low,1,Sad,100,1,Sad,430.899999976158,1,High,544.200000047684
11,1,0.75,E,1,Low,1,Sad,60,1,Sad,462.699999988079,1,High,724.900000035763
12,1,0.75,E,0,High,0,Happy,40,0,Happy,1040.40000003576,1,High,641.300000011921
13,1,0.75,E,1,Low,1,Sad,60,1,Sad,535.800000011921,1,High,717.100000023842
14,1,0.75,E,1,Low,1,Sad,60,1,Sad,545.199999988079,1,High,585.900000035763
15,1,0.75,E,1,Low,1,Sad,60,1,Sad,433.299999952316,1,High,661.899999976158
16,1,0.75,UE,0,High,1,Sad,80,1,Sad,546.600000023842,1,High,633
17,1,0.75,E,0,High,0,Happy,0,0,Happy,672.5,1,High,658.800000011921
18,1,0.75,E,0,High,0,Happy,20,0,Happy,633.899999976158,1,High,509.899999976158
19,1,0.75,E,1,Low,1,Sad,80,1,Sad,567.300000011921,1,High,527.200000047684
20,1,0.75,E,0,High,0,Happy,0,0,Happy,677.5,1,High,502.600000023842
21,1,0.75,UE,0,High,1,Sad,100,1,Sad,516.5,1,High,521.599999964237
22,1,0.75,E,0,High,0,Happy,20,0,Happy,629.899999976158,1,High,448.300000011921
23,1,0.75,E,1,Low,1,Sad,60,1,Sad,807.400000035763,1,High,481.199999988079
24,1,0.75,E,0,High,0,Happy,40,0,Happy,1323.5,1,High,750.399999976158
25,1,0.75,UE,1,Low,0,Happy,0,0,Happy,583.100000023842,1,High,663.899999976158
26,1,0.75,E,1,Low,1,Sad,80,1,Sad,528.799999952316,1,High,492.099999964237
27,1,0.75,E,0,High,0,Happy,0,0,Happy,744.699999988079,1,High,453.199999988079
28,1,0.75,E,0,High,0,Happy,0,0,Happy,464.699999988079,1,High,560.300000011921
29,1,0.75,E,1,Low,1,Sad,60,1,Sad,534.800000011921,1,High,490.599999964237
30,1,0.75,E,1,Low,1,Sad,100,1,Sad,762.900000035763,1,High,578.199999988079
31,1,0.75,UE,1,Low,0,Happy,40,0,Happy,632,1,High,785.699999988079
32,1,0.75,UE,0,High,1,Sad,100,1,Sad,794.599999964237,1,High,474
33,1,0.75,E,0,High,0,Happy,40,0,Happy,1714.09999996424,1,High,512.599999964237
34,1,0.75,E,0,High,0,Happy,40,0,Happy,614.699999988079,1,High,580.400000035763
35,1,0.75,E,1,Low,1,Sad,80,1,Sad,473.300000011921,1,High,569.699999988079
36,1,0.75,E,1,Low,1,Sad,60,1,Sad,934.5,1,High,464.900000035763
37,1,0.75,E,0,High,0,Happy,40,0,Happy,655.400000035763,1,High,600.300000011921
38,1,0.75,UE,0,High,1,Sad,80,1,Sad,598.300000011921,1,High,526.899999976158
39,1,0.75,E,1,Low,1,Sad,60,1,Sad,519,1,High,789.099999964237
40,1,0.75,E,0,High,0,Happy,40,0,Happy,816.5,1,High,531
41,1,0.75,UE,1,Low,0,Happy,20,0,Happy,566.199999988079,1,High,591.800000011921
42,1,0.75,E,0,High,0,Happy,20,0,Happy,716.199999988079,1,High,515.5
43,1,0.75,E,1,Low,1,Sad,100,1,Sad,571.400000035763,1,High,646.599999964237
44,1,0.75,UE,0,High,1,Sad,80,1,Sad,537.800000011921,1,High,594.900000035763
45,1,0.75,E,1,Low,1,Sad,100,1,Sad,416.599999964237,1,High,582.5
46,1,0.75,E,0,High,0,Happy,0,0,Happy,929.5,1,High,729.899999976158
47,1,0.75,E,1,Low,1,Sad,80,1,Sad,542.5,1,High,574.199999988079
48,1,0.75,UE,1,Low,0,Happy,20,0,Happy,752.900000035763,1,High,667
49,1,0.75,E,0,High,0,Happy,0,0,Happy,659.199999988079,1,High,560.800000011921
50,1,0.75,E,1,Low,1,Sad,80,1,Sad,621,1,High,634.599999964237
51,1,0.75,E,0,High,0,Happy,20,0,Happy,738.899999976158,1,High,479.100000023842
52,1,0.75,UE,0,High,1,Sad,60,1,Sad,525.600000023842,1,High,705.5
53,1,0.75,UE,1,Low,0,Happy,0,0,Happy,662.099999964237,1,High,558.300000011921
54,1,0.75,E,1,Low,1,Sad,100,1,Sad,712.100000023842,1,High,560.300000011921
55,1,0.75,E,1,Low,1,Sad,100,1,Sad,1007.19999998808,1,High,520.199999988079
56,1,0.75,E,0,High,0,Happy,0,0,Happy,723.099999964237,1,High,606.699999988079
57,1,0.75,E,1,Low,1,Sad,100,1,Sad,640.300000011921,1,High,568.600000023842
58,1,0.75,UE,0,High,1,Sad,100,1,Sad,669.800000011921,1,High,525.599999964237
59,1,0.75,E,1,Low,1,Sad,80,1,Sad,533,1,High,547
60,1,0.75,E,0,High,0,Happy,20,0,Happy,675.800000011921,1,High,698.5
61,1,0.75,UE,1,Low,0,Happy,40,0,Happy,1247.60000002384,1,High,455.5
62,1,0.75,UE,1,Low,0,Happy,20,0,Happy,2037.69999998808,1,High,999.800000011921
63,1,0.75,E,0,High,0,Happy,20,0,Happy,892.800000011921,1,High,522.400000035763
64,1,0.75,E,1,Low,1,Sad,60,1,Sad,957.800000011921,1,High,495.200000047684
65,1,0.75,E,0,High,0,Happy,40,0,Happy,741.099999964237,1,High,689
66,1,0.75,E,1,Low,1,Sad,80,1,Sad,580.800000011921,1,High,505.100000023842
67,1,0.75,UE,1,Low,0,Happy,0,0,Happy,684,1,High,496.800000011921
68,1,0.75,E,0,High,0,Happy,40,0,Happy,800.700000047684,1,High,497
69,1,0.75,E,0,High,0,Happy,40,0,Happy,577.600000023842,1,High,597.199999988079
70,1,0.75,E,0,High,0,Happy,0,0,Happy,752.200000047684,1,High,542.199999988079
71,1,0.75,UE,1,Low,0,Happy,0,0,Happy,782.900000035763,1,High,574.5
72,1,0.75,E,1,Low,1,Sad,60,1,Sad,996.800000011921,1,High,502.600000023842
73,1,0.75,E,0,High,0,Happy,40,0,Happy,824.399999976158,1,High,532.199999988079
74,1,0.75,E,1,Low,1,Sad,100,1,Sad,724.5,1,High,495.5
75,1,0.75,E,1,Low,1,Sad,100,1,Sad,819.099999964237,1,High,418.399999976158
76,1,0.75,E,0,High,0,Happy,20,0,Happy,681.100000023842,1,High,720
77,1,0.75,UE,0,High,1,Sad,60,1,Sad,663.100000023842,1,High,488.599999964237
78,1,0.75,E,0,High,0,Happy,0,0,Happy,546,1,High,557.599999964237
79,1,0.75,E,0,High,0,Happy,40,0,Happy,1134.89999997616,1,High,479.300000011921
80,1,0.75,UE,0,High,1,Sad,60,1,Sad,535.400000035763,1,High,518.199999988079
81,1,0.75,E,0,High,0,Happy,40,0,Happy,1175.69999998808,1,High,503.599999964237
82,1,0.75,UE,0,High,1,Sad,80,1,Sad,705.399999976158,1,High,632.400000035763
83,1,0.75,E,0,High,0,Happy,0,0,Happy,843.099999964237,1,High,610.299999952316
84,1,0.75,E,0,High,0,Happy,20,0,Happy,805.400000035763,1,High,472.699999988079
85,1,0.75,E,1,Low,1,Sad,100,1,Sad,588.699999988079,1,High,478.899999976158
86,1,0.75,E,1,Low,1,Sad,100,1,Sad,606.5,1,High,476.800000011921
87,1,0.75,UE,1,Low,0,Happy,40,0,Happy,789.899999976158,1,High,481.399999976158
88,1,0.75,E,1,Low,1,Sad,80,1,Sad,587.699999988079,1,High,474.300000011921
89,1,0.75,E,0,High,0,Happy,0,0,Happy,723.5,1,High,406.699999988079
90,1,0.75,UE,0,High,1,Sad,60,1,Sad,565.600000023842,1,High,486.399999976158
91,1,0.75,E,1,Low,1,Sad,60,1,Sad,923.100000023842,1,High,496.600000023842
92,1,0.75,E,1,Low,1,Sad,80,1,Sad,708.800000011921,1,High,417.5
93,1,0.75,E,0,High,0,Happy,20,0,Happy,694.099999964237,1,High,500.100000023842
94,1,0.75,E,0,High,0,Happy,20,0,Happy,695.299999952316,1,High,436.299999952316
95,1,0.75,UE,1,Low,0,Happy,40,0,Happy,757.599999964237,1,High,430.699999988079
96,1,0.75,E,1,Low,1,Sad,80,1,Sad,574.5,1,High,498.199999988079
97,2,0.25,E,1,Low,0,Happy,0,0,Happy,1041.69999998808,1,High,535.600000023842
98,2,0.25,UE,1,Low,1,Sad,80,1,Sad,595.099999964237,1,High,486.100000023842
99,2,0.25,E,1,Low,0,Happy,40,0,Happy,1302,1,High,469.5
100,2,0.25,E,1,Low,0,Happy,40,0,Happy,626.699999988079,1,High,505.400000035763
101,2,0.25,E,0,High,1,Sad,60,1,Sad,530.899999976158,1,High,487.5
102,2,0.25,E,1,Low,0,Happy,20,0,Happy,1091.40000003576,1,High,543.600000023842
103,2,0.25,E,0,High,1,Sad,80,1,Sad,519,1,High,456.5
104,2,0.25,UE,1,Low,1,Sad,100,1,Sad,587.599999964237,1,High,479.5
105,2,0.25,E,1,Low,0,Happy,20,0,Happy,613.699999988079,1,High,537.599999964237
106,2,0.25,UE,1,Low,1,Sad,60,1,Sad,584.5,1,High,476.100000023842
107,2,0.25,UE,0,High,0,Happy,20,0,Happy,621.199999988079,1,High,487.699999988079
108,2,0.25,E,0,High,1,Sad,100,1,Sad,773.799999952316,1,High,376.600000023842
109,2,0.25,E,1,Low,0,Happy,40,0,Happy,801.800000011921,1,High,537.199999988079
110,2,0.25,E,0,High,1,Sad,80,1,Sad,526,1,High,498.100000023842
111,2,0.25,E,0,High,1,Sad,60,1,Sad,582.800000011921,1,High,481.800000011921
112,2,0.25,E,1,Low,0,Happy,0,0,Happy,648.200000047684,1,High,552.599999964237
113,2,0.25,UE,0,High,0,Happy,40,0,Happy,843.699999988079,1,High,473.899999976158
114,2,0.25,E,0,High,1,Sad,80,1,Sad,590.699999988079,1,High,441.899999976158
115,2,0.25,E,0,High,1,Sad,100,1,Sad,574.100000023842,1,High,461.5
116,2,0.25,E,0,High,1,Sad,60,1,Sad,629.399999976158,1,High,393.699999988079
117,2,0.25,E,1,Low,0,Happy,0,0,Happy,646.5,1,High,473.199999988079
118,2,0.25,E,1,Low,0,Happy,20,0,Happy,840.700000047684,1,High,484.5
119,2,0.25,UE,0,High,0,Happy,0,0,Happy,819,1,High,358.400000035763
120,2,0.25,E,0,High,1,Sad,100,1,Sad,616.900000035763,1,High,411.900000035763
121,3,0.75,E,0,High,0,Happy,0,0,Happy,672.400000035763,1,High,436.5
122,3,0.75,E,0,High,0,Happy,40,0,Happy,817.800000011921,1,High,398.600000023842
123,3,0.75,E,0,High,0,Happy,0,0,Happy,719.899999976158,1,High,413.899999976158
124,3,0.75,E,1,Low,1,Sad,80,1,Sad,869.699999988079,1,High,615.600000023842
125,3,0.75,E,1,Low,1,Sad,60,0,Happy,1941.80000001192,1,High,414.899999976158
126,3,0.75,UE,0,High,1,Sad,100,1,Sad,668,1,High,445.700000047684
127,3,0.75,E,0,High,0,Happy,20,0,Happy,800.700000047684,1,High,824.599999964237
128,3,0.75,E,0,High,0,Happy,40,0,Happy,866.800000011921,1,High,429.400000035763
129,3,0.75,UE,1,Low,0,Happy,20,0,Happy,702.599999964237,1,High,450.400000035763
130,3,0.75,E,1,Low,1,Sad,100,1,Sad,857.399999976158,1,High,565.700000047684
131,3,0.75,E,0,High,0,Happy,40,0,Happy,2790.39999997616,0,Low,1222.60000002384
132,3,0.75,UE,1,Low,0,Happy,40,0,Happy,921.399999976158,1,High,1369.90000003576
133,3,0.75,UE,0,High,1,Sad,60,1,Sad,1256.80000001192,1,High,905.800000011921
134,3,0.75,E,1,Low,1,Sad,80,1,Sad,798.800000011921,1,High,818.899999976158
135,3,0.75,E,1,Low,1,Sad,60,1,Sad,646.600000023842,1,High,493.199999988079
136,3,0.75,E,1,Low,1,Sad,60,1,Sad,844.300000011921,1,High,528.599999964237
137,3,0.75,E,1,Low,1,Sad,100,1,Sad,637.5,1,High,691.399999976158
138,3,0.75,UE,0,High,1,Sad,80,1,Sad,486.800000011921,1,High,815.199999988079
139,3,0.75,E,0,High,0,Happy,20,0,Happy,1228.30000001192,1,High,522.199999988079
140,3,0.75,E,1,Low,1,Sad,80,1,Sad,818.399999976158,1,High,519.5
141,3,0.75,E,1,Low,1,Sad,100,1,Sad,589.199999988079,1,High,532.699999988079
142,3,0.75,E,0,High,0,Happy,0,0,Happy,682,1,High,432.199999988079
143,3,0.75,UE,1,Low,0,Happy,0,0,Happy,894.699999988079,1,High,428
144,3,0.75,E,0,High,0,Happy,20,0,Happy,633.599999964237,1,High,421
145,4,0.25,E,1,Low,0,Happy,0,0,Happy,809.100000023842,1,High,551.699999988079
146,4,0.25,E,1,Low,0,Happy,20,0,Happy,649.899999976158,1,High,519.200000047684
147,4,0.25,UE,1,Low,1,Sad,80,1,Sad,707.300000011921,1,High,576.300000011921
148,4,0.25,UE,0,High,0,Happy,40,0,Happy,708.799999952316,1,High,576.699999988079
149,4,0.25,E,0,High,1,Sad,80,1,Sad,652.300000011921,1,High,535
150,4,0.25,E,0,High,1,Sad,60,1,Sad,929.399999976158,1,High,596.900000035763
151,4,0.25,E,1,Low,0,Happy,0,0,Happy,932.600000023842,1,High,563
152,4,0.25,E,0,High,1,Sad,80,1,Sad,659.599999964237,1,High,464.600000023842
153,4,0.25,E,1,Low,0,Happy,40,0,Happy,719.900000035763,1,High,429.100000023842
154,4,0.25,E,0,High,1,Sad,100,1,Sad,459.899999976158,1,High,418.200000047684
155,4,0.25,E,0,High,1,Sad,100,1,Sad,550.800000011921,1,High,453.399999976158
156,4,0.25,E,0,High,1,Sad,80,1,Sad,479.700000047684,1,High,429.799999952316
157,4,0.25,E,1,Low,0,Happy,20,0,Happy,647.399999976158,1,High,521.900000035763
158,4,0.25,UE,0,High,0,Happy,20,0,Happy,607.400000035763,1,High,410.699999988079
159,4,0.25,E,0,High,1,Sad,60,1,Sad,548.5,1,High,447.100000023842
160,4,0.25,E,1,Low,0,Happy,40,0,Happy,544.900000035763,1,High,415.5
161,4,0.25,E,1,Low,0,Happy,0,0,Happy,506.300000011921,1,High,514.899999976158
162,4,0.25,UE,1,Low,1,Sad,60,1,Sad,597.300000011921,1,High,480
163,4,0.25,E,0,High,1,Sad,100,1,Sad,637.899999976158,1,High,653.800000011921
164,4,0.25,E,0,High,1,Sad,60,1,Sad,859.800000011921,1,High,414.399999976158
165,4,0.25,UE,0,High,0,Happy,0,0,Happy,666.899999976158,1,High,506.099999964237
166,4,0.25,E,1,Low,0,Happy,40,0,Happy,820.600000023842,1,High,432.699999988079
167,4,0.25,E,1,Low,0,Happy,20,0,Happy,491.100000023842,1,High,508.5
168,4,0.25,UE,1,Low,1,Sad,100,1,Sad,607.100000023842,1,High,421.800000011921
169,5,0.75,E,0,High,0,Happy,20,0,Happy,613,1,High,496.800000011921
170,5,0.75,UE,0,High,1,Sad,60,1,Sad,531.800000011921,1,High,468.099999964237
171,5,0.75,E,0,High,0,Happy,0,0,Happy,621.399999976158,1,High,503.800000011921
172,5,0.75,E,0,High,0,Happy,40,0,Happy,1173.30000001192,1,High,401.699999988079
173,5,0.75,E,1,Low,1,Sad,60,1,Sad,704.300000011921,1,High,554.100000023842
174,5,0.75,E,1,Low,1,Sad,80,1,Sad,844.200000047684,1,High,436
175,5,0.75,E,1,Low,1,Sad,60,1,Sad,575.699999988079,1,High,449.300000011921
176,5,0.75,E,0,High,0,Happy,20,0,Happy,753.5,1,High,426.899999976158
177,5,0.75,E,1,Low,1,Sad,100,1,Sad,584.900000035763,1,High,428.199999988079
178,5,0.75,UE,1,Low,0,Happy,0,0,Happy,733.800000011921,1,High,508.399999976158
179,5,0.75,E,0,High,0,Happy,20,0,Happy,657.800000011921,1,High,402.099999964237
180,5,0.75,UE,1,Low,0,Happy,40,0,Happy,602.199999988079,1,High,406.100000023842
181,5,0.75,E,1,Low,1,Sad,60,1,Sad,573.299999952316,1,High,443.600000023842
182,5,0.75,E,0,High,0,Happy,40,0,Happy,651.699999988079,1,High,449.800000011921
183,5,0.75,E,1,Low,1,Sad,80,1,Sad,585.5,1,High,424
184,5,0.75,E,1,Low,1,Sad,80,1,Sad,628.300000011921,1,High,473.5
185,5,0.75,UE,0,High,1,Sad,80,1,Sad,514.300000011921,1,High,660.399999976158
186,5,0.75,UE,0,High,1,Sad,100,1,Sad,449.199999988079,1,High,465.399999976158
187,5,0.75,E,0,High,0,Happy,0,0,Happy,747.600000023842,1,High,468
188,5,0.75,E,1,Low,1,Sad,100,1,Sad,571,1,High,417.700000047684
189,5,0.75,UE,1,Low,0,Happy,20,0,Happy,544.300000011921,1,High,446.5
190,5,0.75,E,0,High,0,Happy,0,0,Happy,566.5,1,High,467.799999952316
191,5,0.75,E,1,Low,1,Sad,100,1,Sad,614.5,1,High,409.899999976158
192,5,0.75,E,0,High,0,Happy,40,0,Happy,654.700000047684,1,High,461.399999976158
