Trial_N,Block_N,Contingency,Expectedness,Cue_idx,Cue_name,Outcome_idx,Outcome_name,Outcome_p_sad,Response_idx,Response_name,Response_RT,Confidence_idx,Confidence_name,Confidence_RT
1,1,0.75,E,1,Low,1,Sad,80,1,Sad,1805.29999995232,1,High,1888.90000009537
2,1,0.75,E,1,Low,1,Sad,100,1,Sad,1099.5,1,High,679.200000047684
3,1,0.75,E,1,Low,1,Sad,80,1,Sad,667.299999952316,1,High,627
4,1,0.75,E,0,High,0,Happy,20,0,Happy,1095,1,High,1572.59999990463
5,1,0.75,E,0,High,0,Happy,0,0,Happy,937.599999904633,1,High,1207.20000004768
6,1,0.75,UE,0,High,1,Sad,100,1,Sad,891.099999904633,1,High,836
7,1,0.75,E,1,Low,1,Sad,60,0,Happy,1531.20000004768,0,Low,1119.79999995232
8,1,0.75,E,0,High,0,Happy,20,0,Happy,1125.59999990463,1,High,644.599999904633
9,1,0.75,UE,1,Low,0,Happy,20,0,Happy,751.899999856949,1,High,483.700000047684
10,1,0.75,E,1,Low,1,Sad,100,1,Sad,755.799999952316,1,High,493.199999809265
11,1,0.75,E,1,Low,1,Sad,60,1,Sad,590.400000095367,1,High,493.300000190735
12,1,0.75,E,0,High,0,Happy,40,0,Happy,792.600000143051,1,High,437.200000047684
13,1,0.75,E,1,Low,1,Sad,60,1,Sad,1061,1,High,549.799999952316
14,1,0.75,E,1,Low,1,Sad,60,1,Sad,790,1,High,449.699999809265
15,1,0.75,E,1,Low,1,Sad,60,1,Sad,597.799999952316,1,High,449.799999952316
16,1,0.75,UE,0,High,1,Sad,80,1,Sad,710.700000047684,1,High,447.5
17,1,0.75,E,0,High,0,Happy,0,0,Happy,583.599999904633,1,High,441.100000143051
18,1,0.75,E,0,High,0,Happy,20,0,Happy,399,1,High,430.200000047684
19,1,0.75,E,1,Low,1,Sad,80,1,Sad,509.900000095367,1,High,423.600000143051
20,1,0.75,E,0,High,0,Happy,0,0,Happy,547,1,High,424.199999809265
21,1,0.75,UE,0,High,1,Sad,100,1,Sad,611.600000143051,1,High,414.599999904633
22,1,0.75,E,0,High,0,Happy,20,0,Happy,1011.90000009537,1,High,463.099999904633
23,1,0.75,E,1,Low,1,Sad,60,1,Sad,1019,1,High,406
24,1,0.75,E,0,High,0,Happy,40,0,Happy,1042.90000009537,0,Low,1022.90000009537
25,1,0.75,UE,1,Low,0,Happy,0,0,Happy,765.800000190735,1,High,366.5
26,1,0.75,E,1,Low,1,Sad,80,1,Sad,849.700000047684,1,High,401.300000190735
27,1,0.75,E,0,High,0,Happy,0,0,Happy,782.299999952316,1,High,408
28,1,0.75,E,0,High,0,Happy,0,0,Happy,437.600000143051,1,High,426.099999904633
29,1,0.75,E,1,Low,1,Sad,60,1,Sad,659.799999952316,1,High,393
30,1,0.75,E,1,Low,1,Sad,100,1,Sad,496.100000143051,1,High,449.099999904633
31,1,0.75,UE,1,Low,0,Happy,40,0,Happy,588.5,1,High,412
32,1,0.75,UE,0,High,1,Sad,100,1,Sad,677.900000095367,1,High,416.100000143051
33,1,0.75,E,0,High,0,Happy,40,0,Happy,635.100000143051,1,High,409.299999952316
34,1,0.75,E,0,High,0,Happy,40,0,Happy,643.200000047684,1,High,398.5
35,1,0.75,E,1,Low,1,Sad,80,1,Sad,854.100000143051,1,High,369.799999952316
36,1,0.75,E,1,Low,1,Sad,60,1,Sad,668.099999904633,1,High,414
37,1,0.75,E,0,High,0,Happy,40,0,Happy,1130,1,High,366.700000047684
38,1,0.75,UE,0,High,1,Sad,80,1,Sad,888,1,High,379.200000047684
39,1,0.75,E,1,Low,1,Sad,60,1,Sad,1045.89999985695,0,Low,639.299999952316
40,1,0.75,E,0,High,0,Happy,40,0,Happy,899.800000190735,1,High,379.799999952316
41,1,0.75,UE,1,Low,0,Happy,20,0,Happy,621.699999809265,1,High,401.600000143051
42,1,0.75,E,0,High,0,Happy,20,0,Happy,441.599999904633,1,High,390.600000143051
43,1,0.75,E,1,Low,1,Sad,100,1,Sad,601.399999856949,1,High,383.900000095367
44,1,0.75,UE,0,High,1,Sad,80,1,Sad,606.599999904633,1,High,394.599999904633
45,1,0.75,E,1,Low,1,Sad,100,1,Sad,467.899999856949,1,High,393.799999952316
46,1,0.75,E,0,High,0,Happy,0,0,Happy,441,1,High,407.599999904633
47,1,0.75,E,1,Low,1,Sad,80,1,Sad,613.400000095367,1,High,384.400000095367
48,1,0.75,UE,1,Low,0,Happy,20,0,Happy,674.699999809265,1,High,377.599999904633
49,1,0.75,E,0,High,0,Happy,0,0,Happy,522.799999952316,1,High,403.600000143051
50,1,0.75,E,1,Low,1,Sad,80,1,Sad,626.5,1,High,384.899999856949
51,1,0.75,E,0,High,0,Happy,20,0,Happy,660.700000047684,1,High,405.399999856949
52,1,0.75,UE,0,High,1,Sad,60,1,Sad,896.399999856949,0,Low,840.400000095367
53,1,0.75,UE,1,Low,0,Happy,0,0,Happy,643.899999856949,1,High,404.200000047684
54,1,0.75,E,1,Low,1,Sad,100,1,Sad,604.5,1,High,394.400000095367
55,1,0.75,E,1,Low,1,Sad,100,1,Sad,543.5,1,High,385.5
56,1,0.75,E,0,High,0,Happy,0,0,Happy,422.799999952316,1,High,397.400000095367
57,1,0.75,E,1,Low,1,Sad,100,1,Sad,624.100000143051,1,High,357.200000047684
58,1,0.75,UE,0,High,1,Sad,100,1,Sad,938,1,High,381.899999856949
59,1,0.75,E,1,Low,1,Sad,80,1,Sad,568.5,1,High,406.799999952316
60,1,0.75,E,0,High,0,Happy,20,0,Happy,626.099999904633,1,High,403.799999952316
61,1,0.75,UE,1,Low,0,Happy,40,0,Happy,606.700000047684,1,High,382.399999856949
62,1,0.75,UE,1,Low,0,Happy,20,0,Happy,395.700000047684,1,High,361.5
63,1,0.75,E,0,High,0,Happy,20,0,Happy,373.5,1,High,364.299999952316
64,1,0.75,E,1,Low,1,Sad,60,0,Happy,2505.39999985695,0,Low,831
65,1,0.75,E,0,High,0,Happy,40,0,Happy,776.799999952316,1,High,378
66,1,0.75,E,1,Low,1,Sad,80,1,Sad,577.100000143051,1,High,357.700000047684
67,1,0.75,UE,1,Low,0,Happy,0,0,Happy,360.600000143051,1,High,354.100000143051
68,1,0.75,E,0,High,0,Happy,40,0,Happy,672.800000190735,1,High,357.799999952316
69,1,0.75,E,0,High,0,Happy,40,0,Happy,512.400000095367,1,High,375.600000143051
70,1,0.75,E,0,High,0,Happy,0,0,Happy,333,1,High,376
71,1,0.75,UE,1,Low,0,Happy,0,0,Happy,380.700000047684,1,High,392.900000095367
72,1,0.75,E,1,Low,1,Sad,60,1,Sad,436.799999952316,1,High,551.400000095367
73,1,0.75,E,0,High,0,Happy,40,0,Happy,890.299999952316,0,Low,1118.30000019073
74,1,0.75,E,1,Low,1,Sad,100,1,Sad,1061.70000004768,1,High,360.100000143051
75,1,0.75,E,1,Low,1,Sad,100,1,Sad,564.299999952316,1,High,368.099999904633
76,1,0.75,E,0,High,0,Happy,20,0,Happy,487.799999952316,1,High,395
77,1,0.75,UE,0,High,1,Sad,60,0,Happy,1654.29999995232,0,Low,470.799999952316
78,1,0.75,E,0,High,0,Happy,0,0,Happy,690,1,High,368.799999952316
79,1,0.75,E,0,High,0,Happy,40,0,Happy,630,1,High,345.399999856949
80,1,0.75,UE,0,High,1,Sad,60,0,Happy,2162.29999995232,0,Low,546.200000047684
81,1,0.75,E,0,High,0,Happy,40,0,Happy,667.299999952316,1,High,342.400000095367
82,1,0.75,UE,0,High,1,Sad,80,1,Sad,594.099999904633,1,High,351.300000190735
83,1,0.75,E,0,High,0,Happy,0,0,Happy,453.599999904633,1,High,422.5
84,1,0.75,E,0,High,0,Happy,20,0,Happy,558.899999856949,1,High,408.099999904633
85,1,0.75,E,1,Low,1,Sad,100,1,Sad,736.799999952316,1,High,352.200000047684
86,1,0.75,E,1,Low,1,Sad,100,1,Sad,523.5,1,High,368.399999856949
87,1,0.75,UE,1,Low,0,Happy,40,0,Happy,842.200000047684,1,High,657.599999904633
88,1,0.75,E,1,Low,1,Sad,80,1,Sad,509.099999904633,1,High,352.799999952316
89,1,0.75,E,0,High,0,Happy,0,0,Happy,546.900000095367,1,High,339.200000047684
90,1,0.75,UE,0,High,1,Sad,60,0,Happy,1836.60000014305,0,Low,462.700000047684
91,1,0.75,E,1,Low,1,Sad,60,1,Sad,1417.79999995232,0,Low,460.899999856949
92,1,0.75,E,1,Low,1,Sad,80,1,Sad,857.400000095367,1,High,600.200000047684
93,1,0.75,E,0,High,0,Happy,20,0,Happy,587.900000095367,1,High,338
94,1,0.75,E,0,High,0,Happy,20,0,Happy,446.799999952316,1,High,316.700000047684
95,1,0.75,UE,1,Low,0,Happy,40,0,Happy,515.099999904633,1,High,323.5
96,1,0.75,E,1,Low,1,Sad,80,1,Sad,533.800000190735,1,High,301.900000095367
97,2,0.25,E,1,Low,0,Happy,0,0,Happy,419.100000143051,1,High,328.200000047684
98,2,0.25,UE,1,Low,1,Sad,80,1,Sad,622,1,High,328.700000047684
99,2,0.25,E,1,Low,0,Happy,40,0,Happy,476.099999904633,1,High,332.700000047684
100,2,0.25,E,1,Low,0,Happy,40,0,Happy,411.899999856949,1,High,346.100000143051
101,2,0.25,E,0,High,1,Sad,60,0,Happy,762.299999952316,0,Low,942.5
102,2,0.25,E,1,Low,0,Happy,20,0,Happy,610.200000047684,1,High,342.900000095367
103,2,0.25,E,0,High,1,Sad,80,1,Sad,1269.5,0,Low,659.200000047684
104,2,0.25,UE,1,Low,1,Sad,100,1,Sad,890.799999952316,1,High,374.700000047684
105,2,0.25,E,1,Low,0,Happy,20,0,Happy,484.600000143051,1,High,346.299999952316
106,2,0.25,UE,1,Low,1,Sad,60,1,Sad,1276.20000004768,0,Low,563.099999904633
107,2,0.25,UE,0,High,0,Happy,20,0,Happy,495,1,High,359
108,2,0.25,E,0,High,1,Sad,100,1,Sad,596.200000047684,1,High,324.299999952316
109,2,0.25,E,1,Low,0,Happy,40,0,Happy,487.700000047684,1,High,354.400000095367
110,2,0.25,E,0,High,1,Sad,80,1,Sad,840.799999952316,1,High,369.700000047684
111,2,0.25,E,0,High,1,Sad,60,1,Sad,1911,0,Low,449.299999952316
112,2,0.25,E,1,Low,0,Happy,0,0,Happy,777,1,High,332.200000047684
113,2,0.25,UE,0,High,0,Happy,40,0,Happy,540.700000047684,1,High,338.099999904633
114,2,0.25,E,0,High,1,Sad,80,1,Sad,708,0,Low,818.200000047684
115,2,0.25,E,0,High,1,Sad,100,1,Sad,698.5,1,High,329.5
116,2,0.25,E,0,High,1,Sad,60,1,Sad,753.200000047684,0,Low,498.700000047684
117,2,0.25,E,1,Low,0,Happy,0,0,Happy,462.100000143051,1,High,323.399999856949
118,2,0.25,E,1,Low,0,Happy,20,0,Happy,351.900000095367,1,High,338.900000095367
119,2,0.25,UE,0,High,0,Happy,0,0,Happy,374,1,High,326
120,2,0.25,E,0,High,1,Sad,100,1,Sad,482.200000047684,1,High,304.700000047684
121,3,0.75,E,0,High,0,Happy,0,0,Happy,876.5,1,High,1335.70000004768
122,3,0.75,E,0,High,0,Happy,40,0,Happy,511.599999904633,1,High,322.599999904633
123,3,0.75,E,0,High,0,Happy,0,0,Happy,373.099999904633,1,High,318.700000047684
124,3,0.75,E,1,Low,1,Sad,80,1,Sad,879.799999952316,0,Low,644.299999952316
125,3,0.75,E,1,Low,1,Sad,60,1,Sad,707.099999904633,0,Low,362.300000190735
126,3,0.75,UE,0,High,1,Sad,100,1,Sad,633.799999952316,1,High,360.699999809265
127,3,0.75,E,0,High,0,Happy,20,0,Happy,720.299999952316,1,High,317.900000095367
128,3,0.75,E,0,High,0,Happy,40,0,Happy,957.599999904633,1,High,290.200000047684
129,3,0.75,UE,1,Low,0,Happy,20,0,Happy,626.099999904633,1,High,362.200000047684
130,3,0.75,E,1,Low,1,Sad,100,1,Sad,545.099999904633,1,High,308.799999952316
131,3,0.75,E,0,High,0,Happy,40,0,Happy,1523.70000004768,0,Low,447.599999904633
132,3,0.75,UE,1,Low,0,Happy,40,0,Happy,730.599999904633,1,High,316.599999904633
133,3,0.75,UE,0,High,1,Sad,60,1,Sad,819.700000047684,1,High,500.299999952316
134,3,0.75,E,1,Low,1,Sad,80,1,Sad,1017.29999995232,1,High,435.899999856949
135,3,0.75,E,1,Low,1,Sad,60,0,Happy,716.900000095367,1,High,332.799999952316
136,3,0.75,E,1,Low,1,Sad,60,0,Happy,978.700000047684,0,Low,419.200000047684
137,3,0.75,E,1,Low,1,Sad,100,1,Sad,885.799999952316,0,Low,409.099999904633
138,3,0.75,UE,0,High,1,Sad,80,1,Sad,1416.19999980927,1,High,342.600000143051
139,3,0.75,E,0,High,0,Happy,20,0,Happy,691.600000143051,1,High,325.799999952316
140,3,0.75,E,1,Low,1,Sad,80,1,Sad,793.900000095367,1,High,439.899999856949
141,3,0.75,E,1,Low,1,Sad,100,1,Sad,583.700000047684,1,High,313.399999856949
142,3,0.75,E,0,High,0,Happy,0,0,Happy,564.200000047684,1,High,298.099999904633
143,3,0.75,UE,1,Low,0,Happy,0,0,Happy,393.899999856949,1,High,335.299999952316
144,3,0.75,E,0,High,0,Happy,20,0,Happy,368.800000190735,1,High,325.900000095367
145,4,0.25,E,1,Low,0,Happy,0,0,Happy,468.800000190735,1,High,309.600000143051
146,4,0.25,E,1,Low,0,Happy,20,0,Happy,416.900000095367,1,High,312.299999952316
147,4,0.25,UE,1,Low,1,Sad,80,1,Sad,551,1,High,316
148,4,0.25,UE,0,High,0,Happy,40,0,Happy,561.199999809265,1,High,321.200000047684
149,4,0.25,E,0,High,1,Sad,80,1,Sad,497.799999952316,1,High,316
150,4,0.25,E,0,High,1,Sad,60,0,Happy,1270,0,Low,474.299999952316
151,4,0.25,E,1,Low,0,Happy,0,0,Happy,593.5,1,High,334.400000095367
152,4,0.25,E,0,High,1,Sad,80,1,Sad,631.899999856949,1,High,331.200000047684
153,4,0.25,E,1,Low,0,Happy,40,0,Happy,499.299999952316,1,High,325.100000143051
154,4,0.25,E,0,High,1,Sad,100,1,Sad,551.299999952316,1,High,306.5
155,4,0.25,E,0,High,1,Sad,100,0,Happy,388.600000143051,0,Low,1486.5
156,4,0.25,E,0,High,1,Sad,80,1,Sad,1589.29999995232,0,Low,343
157,4,0.25,E,1,Low,0,Happy,20,0,Happy,623.400000095367,1,High,337.400000095367
158,4,0.25,UE,0,High,0,Happy,20,0,Happy,478.599999904633,1,High,332.099999904633
159,4,0.25,E,0,High,1,Sad,60,1,Sad,1241.70000004768,0,Low,395.200000047684
160,4,0.25,E,1,Low,0,Happy,40,0,Happy,1065.29999995232,1,High,362.100000143051
161,4,0.25,E,1,Low,0,Happy,0,0,Happy,570.700000047684,1,High,333
162,4,0.25,UE,1,Low,1,Sad,60,0,Happy,1238.20000004768,0,Low,455.699999809265
163,4,0.25,E,0,High,1,Sad,100,1,Sad,874.600000143051,1,High,356.900000095367
164,4,0.25,E,0,High,1,Sad,60,0,Happy,1500.79999995232,0,Low,389.899999856949
165,4,0.25,UE,0,High,0,Happy,0,0,Happy,929.700000047684,1,High,317.299999952316
166,4,0.25,E,1,Low,0,Happy,40,0,Happy,810.200000047684,0,Low,767.599999904633
167,4,0.25,E,1,Low,0,Happy,20,0,Happy,712.399999856949,1,High,322.900000095367
168,4,0.25,UE,1,Low,1,Sad,100,1,Sad,879.399999856949,1,High,1027.90000009537
169,5,0.75,E,0,High,0,Happy,20,0,Happy,589.900000095367,1,High,354.800000190735
170,5,0.75,UE,0,High,1,Sad,60,0,Happy,998.600000143051,0,Low,407.5
171,5,0.75,E,0,High,0,Happy,0,0,Happy,657,1,High,317.799999952316
172,5,0.75,E,0,High,0,Happy,40,0,Happy,530.700000047684,1,High,311.300000190735
173,5,0.75,E,1,Low,1,Sad,60,1,Sad,926.200000047684,0,Low,367.200000047684
174,5,0.75,E,1,Low,1,Sad,80,1,Sad,987.200000047684,1,High,312.199999809265
175,5,0.75,E,1,Low,1,Sad,60,0,Happy,927.600000143051,0,Low,350.700000047684
176,5,0.75,E,0,High,0,Happy,20,0,Happy,485.200000047684,1,High,302.299999952316
177,5,0.75,E,1,Low,1,Sad,100,1,Sad,661.800000190735,1,High,362.699999809265
178,5,0.75,UE,1,Low,0,Happy,0,0,Happy,467.400000095367,1,High,320.5
179,5,0.75,E,0,High,0,Happy,20,0,Happy,442.599999904633,1,High,324.699999809265
180,5,0.75,UE,1,Low,0,Happy,40,0,Happy,399.799999952316,1,High,320.299999952316
181,5,0.75,E,1,Low,1,Sad,60,0,Happy,597.900000095367,1,High,311.5
182,5,0.75,E,0,High,0,Happy,40,0,Happy,428.599999904633,1,High,316.899999856949
183,5,0.75,E,1,Low,1,Sad,80,1,Sad,1216,0,Low,356.600000143051
184,5,0.75,E,1,Low,1,Sad,80,1,Sad,771,0,Low,357.400000095367
185,5,0.75,UE,0,High,1,Sad,80,1,Sad,745.600000143051,0,Low,347.200000047684
186,5,0.75,UE,0,High,1,Sad,100,1,Sad,1170.29999995232,1,High,283.099999904633
187,5,0.75,E,0,High,0,Happy,0,0,Happy,439.299999952316,1,High,308.799999952316
188,5,0.75,E,1,Low,1,Sad,100,1,Sad,695.299999952316,1,High,714.5
189,5,0.75,UE,1,Low,0,Happy,20,0,Happy,614.899999856949,1,High,303.599999904633
190,5,0.75,E,0,High,0,Happy,0,0,Happy,403.799999952316,1,High,309
191,5,0.75,E,1,Low,1,Sad,100,1,Sad,572.599999904633,1,High,312.5
192,5,0.75,E,0,High,0,Happy,40,0,Happy,921.899999856949,1,High,309.100000143051
