Trial_N,Block_N,Contingency,Expectedness,Cue_idx,Cue_name,Outcome_idx,Outcome_name,Outcome_p_sad,Response_idx,Response_name,Response_RT,Confidence_idx,Confidence_name,Confidence_RT
1,1,0.75,E,1,Low,1,Sad,80,1,Sad,1489,1,High,1302.69999999995
2,1,0.75,E,1,Low,1,Sad,100,1,Sad,804.300000000047,1,High,625.79999999993
3,1,0.75,E,1,Low,1,Sad,80,1,Sad,666.5,1,High,578.699999999953
4,1,0.75,E,0,High,0,Happy,20,0,Happy,650,1,High,831.400000000023
5,1,0.75,E,0,High,0,Happy,0,0,Happy,586.199999999953,1,High,455.5
6,1,0.75,UE,0,High,1,Sad,100,1,Sad,650.79999999993,1,High,725.5
7,1,0.75,E,1,Low,1,Sad,60,1,Sad,2436.09999999998,0,Low,941.79999999993
8,1,0.75,E,0,High,0,Happy,20,0,Happy,770.800000000047,1,High,673.900000000023
9,1,0.75,UE,1,Low,0,Happy,20,0,Happy,855.399999999907,1,High,607.5
10,1,0.75,E,1,Low,1,Sad,100,1,Sad,703.599999999977,1,High,828.70000000007
11,1,0.75,E,1,Low,1,Sad,60,1,Sad,2099.20000000007,0,Low,690.70000000007
12,1,0.75,E,0,High,0,Happy,40,0,Happy,1692.70000000007,1,High,518.100000000093
13,1,0.75,E,1,Low,1,Sad,60,1,Sad,1257,1,High,1423
14,1,0.75,E,1,Low,1,Sad,60,1,Sad,1152.39999999991,1,High,630.599999999977
15,1,0.75,E,1,Low,1,Sad,60,1,Sad,854.199999999953,1,High,466.79999999993
16,1,0.75,UE,0,High,1,Sad,80,1,Sad,749.29999999993,1,High,488.400000000023
17,1,0.75,E,0,High,0,Happy,0,0,Happy,591.70000000007,1,High,599.300000000047
18,1,0.75,E,0,High,0,Happy,20,0,Happy,531.100000000093,1,High,454
19,1,0.75,E,1,Low,1,Sad,80,1,Sad,509,1,High,400.100000000093
20,1,0.75,E,0,High,0,Happy,0,0,Happy,565.900000000023,1,High,563
21,1,0.75,UE,0,High,1,Sad,100,1,Sad,667.800000000047,1,High,430.70000000007
22,1,0.75,E,0,High,0,Happy,20,0,Happy,761.400000000023,1,High,427.5
23,1,0.75,E,1,Low,1,Sad,60,1,Sad,696,1,High,407.29999999993
24,1,0.75,E,0,High,0,Happy,40,0,Happy,2076.79999999993,1,High,541.5
25,1,0.75,UE,1,Low,0,Happy,0,0,Happy,738.300000000047,1,High,392.20000000007
26,1,0.75,E,1,Low,1,Sad,80,1,Sad,705,1,High,884.79999999993
27,1,0.75,E,0,High,0,Happy,0,0,Happy,670.199999999953,1,High,508.599999999977
28,1,0.75,E,0,High,0,Happy,0,0,Happy,571.400000000023,1,High,438.399999999907
29,1,0.75,E,1,Low,1,Sad,60,1,Sad,789.699999999953,1,High,753.900000000023
30,1,0.75,E,1,Low,1,Sad,100,1,Sad,707.29999999993,1,High,650.600000000093
31,1,0.75,UE,1,Low,0,Happy,40,0,Happy,1272.69999999995,1,High,683.099999999977
32,1,0.75,UE,0,High,1,Sad,100,1,Sad,762.600000000093,1,High,662.199999999953
33,1,0.75,E,0,High,0,Happy,40,0,Happy,921.400000000023,1,High,575.29999999993
34,1,0.75,E,0,High,0,Happy,40,0,Happy,780.699999999953,1,High,513.099999999977
35,1,0.75,E,1,Low,1,Sad,80,1,Sad,736.199999999953,1,High,619.900000000023
36,1,0.75,E,1,Low,1,Sad,60,0,Happy,1564.40000000002,0,Low,651.199999999953
37,1,0.75,E,0,High,0,Happy,40,0,Happy,879.5,1,High,445.699999999953
38,1,0.75,UE,0,High,1,Sad,80,1,Sad,749.5,1,High,634.5
39,1,0.75,E,1,Low,1,Sad,60,1,Sad,1459.40000000002,0,Low,610.5
40,1,0.75,E,0,High,0,Happy,40,0,Happy,697.5,1,High,469.5
41,1,0.75,UE,1,Low,0,Happy,20,0,Happy,705.70000000007,1,High,429.699999999953
42,1,0.75,E,0,High,0,Happy,20,0,Happy,702.900000000023,1,High,439
43,1,0.75,E,1,Low,1,Sad,100,1,Sad,657.100000000093,1,High,503.599999999977
44,1,0.75,UE,0,High,1,Sad,80,1,Sad,702.400000000023,1,High,399.599999999977
45,1,0.75,E,1,Low,1,Sad,100,1,Sad,636.79999999993,1,High,444
46,1,0.75,E,0,High,0,Happy,0,0,Happy,612.800000000047,1,High,515.099999999977
47,1,0.75,E,1,Low,1,Sad,80,1,Sad,641.900000000023,1,High,447.79999999993
48,1,0.75,UE,1,Low,0,Happy,20,0,Happy,601.29999999993,1,High,454.599999999977
49,1,0.75,E,0,High,0,Happy,0,0,Happy,574.599999999977,1,High,479.400000000023
50,1,0.75,E,1,Low,1,Sad,80,1,Sad,633,1,High,437.79999999993
51,1,0.75,E,0,High,0,Happy,20,0,Happy,578.400000000023,1,High,421.900000000023
52,1,0.75,UE,0,High,1,Sad,60,1,Sad,602.199999999953,1,High,421.699999999953
53,1,0.75,UE,1,Low,0,Happy,0,0,Happy,569.699999999953,1,High,427.800000000047
54,1,0.75,E,1,Low,1,Sad,100,1,Sad,559.699999999953,1,High,460.5
55,1,0.75,E,1,Low,1,Sad,100,1,Sad,564.800000000047,1,High,408.400000000023
56,1,0.75,E,0,High,0,Happy,0,0,Happy,569.800000000047,1,High,406
57,1,0.75,E,1,Low,1,Sad,100,1,Sad,675.70000000007,1,High,511.70000000007
58,1,0.75,UE,0,High,1,Sad,100,1,Sad,689.099999999977,1,High,466.70000000007
59,1,0.75,E,1,Low,1,Sad,80,1,Sad,649.300000000047,1,High,463.70000000007
60,1,0.75,E,0,High,0,Happy,20,0,Happy,622.599999999977,1,High,419
61,1,0.75,UE,1,Low,0,Happy,40,0,Happy,724.300000000047,1,High,456.29999999993
62,1,0.75,UE,1,Low,0,Happy,20,0,Happy,535.699999999953,1,High,396.899999999907
63,1,0.75,E,0,High,0,Happy,20,0,Happy,603.300000000047,1,High,455.699999999953
64,1,0.75,E,1,Low,1,Sad,60,1,Sad,738.599999999977,1,High,831.79999999993
65,1,0.75,E,0,High,0,Happy,40,0,Happy,1629.19999999995,0,Low,519.599999999977
66,1,0.75,E,1,Low,1,Sad,80,1,Sad,733.099999999977,1,High,916.79999999993
67,1,0.75,UE,1,Low,0,Happy,0,0,Happy,700.100000000093,1,High,485.699999999953
68,1,0.75,E,0,High,0,Happy,40,0,Happy,1987.90000000002,0,Low,1506.20000000007
69,1,0.75,E,0,High,0,Happy,40,0,Happy,1996.10000000009,1,High,2680.90000000002
70,1,0.75,E,0,High,0,Happy,0,0,Happy,580.199999999953,1,High,397.20000000007
71,1,0.75,UE,1,Low,0,Happy,0,0,Happy,619.399999999907,1,High,363.300000000047
72,1,0.75,E,1,Low,1,Sad,60,1,Sad,612,1,High,480
73,1,0.75,E,0,High,0,Happy,40,0,Happy,2237.90000000002,0,Low,447.800000000047
74,1,0.75,E,1,Low,1,Sad,100,1,Sad,654.400000000023,1,High,402.699999999953
75,1,0.75,E,1,Low,1,Sad,100,1,Sad,563.900000000023,1,High,413.099999999977
76,1,0.75,E,0,High,0,Happy,20,0,Happy,562.20000000007,1,High,438.599999999977
77,1,0.75,UE,0,High,1,Sad,60,1,Sad,1451.69999999995,0,Low,1878.40000000002
78,1,0.75,E,0,High,0,Happy,0,0,Happy,594.400000000023,1,High,342.79999999993
79,1,0.75,E,0,High,0,Happy,40,0,Happy,1147.5,0,Low,1226.30000000005
80,1,0.75,UE,0,High,1,Sad,60,1,Sad,776.400000000023,1,High,473.300000000047
81,1,0.75,E,0,High,0,Happy,40,0,Happy,1385.30000000005,0,Low,421.599999999977
82,1,0.75,UE,0,High,1,Sad,80,1,Sad,663.599999999977,1,High,395.699999999953
83,1,0.75,E,0,High,0,Happy,0,0,Happy,587.5,1,High,372.800000000047
84,1,0.75,E,0,High,0,Happy,20,0,Happy,598.099999999977,1,High,357.599999999977
85,1,0.75,E,1,Low,1,Sad,100,1,Sad,560.300000000047,1,High,449
86,1,0.75,E,1,Low,1,Sad,100,1,Sad,524.199999999953,1,High,397
87,1,0.75,UE,1,Low,0,Happy,40,0,Happy,715.099999999977,1,High,448.5
88,1,0.75,E,1,Low,1,Sad,80,1,Sad,587,1,High,417.300000000047
89,1,0.75,E,0,High,0,Happy,0,0,Happy,500.599999999977,1,High,353.300000000047
90,1,0.75,UE,0,High,1,Sad,60,1,Sad,1713.40000000002,0,Low,933.79999999993
91,1,0.75,E,1,Low,1,Sad,60,1,Sad,822.699999999953,1,High,439.900000000023
92,1,0.75,E,1,Low,1,Sad,80,1,Sad,627.79999999993,1,High,418.100000000093
93,1,0.75,E,0,High,0,Happy,20,0,Happy,835.300000000047,1,High,445.300000000047
94,1,0.75,E,0,High,0,Happy,20,0,Happy,646.800000000047,1,High,409.900000000023
95,1,0.75,UE,1,Low,0,Happy,40,0,Happy,1564.59999999998,0,Low,746
96,1,0.75,E,1,Low,1,Sad,80,1,Sad,603,1,High,497.800000000047
97,2,0.25,E,1,Low,0,Happy,0,0,Happy,537.20000000007,1,High,396.300000000047
98,2,0.25,UE,1,Low,1,Sad,80,1,Sad,582.400000000023,1,High,406.599999999977
99,2,0.25,E,1,Low,0,Happy,40,0,Happy,980.800000000047,1,High,527.29999999993
100,2,0.25,E,1,Low,0,Happy,40,0,Happy,1133.19999999995,0,Low,1476.5
101,2,0.25,E,0,High,1,Sad,60,1,Sad,939.800000000047,1,High,737.599999999977
102,2,0.25,E,1,Low,0,Happy,20,0,Happy,655.199999999953,1,High,447.599999999977
103,2,0.25,E,0,High,1,Sad,80,1,Sad,654.100000000093,1,High,676.599999999977
104,2,0.25,UE,1,Low,1,Sad,100,1,Sad,571.199999999953,1,High,396.399999999907
105,2,0.25,E,1,Low,0,Happy,20,0,Happy,579.699999999953,1,High,399.5
106,2,0.25,UE,1,Low,1,Sad,60,1,Sad,796.199999999953,1,High,526.100000000093
107,2,0.25,UE,0,High,0,Happy,20,0,Happy,566.199999999953,1,High,430.399999999907
108,2,0.25,E,0,High,1,Sad,100,1,Sad,647.59999999986,1,High,401.40000000014
109,2,0.25,E,1,Low,0,Happy,40,0,Happy,745.199999999953,1,High,399.600000000093
110,2,0.25,E,0,High,1,Sad,80,1,Sad,657.199999999953,1,High,381.800000000047
111,2,0.25,E,0,High,1,Sad,60,1,Sad,1434.39999999991,0,Low,465.40000000014
112,2,0.25,E,1,Low,0,Happy,0,0,Happy,596.799999999814,1,High,417.299999999814
113,2,0.25,UE,0,High,0,Happy,40,0,Happy,1398.40000000014,0,Low,363
114,2,0.25,E,0,High,1,Sad,80,1,Sad,639,1,High,362.199999999953
115,2,0.25,E,0,High,1,Sad,100,1,Sad,584.59999999986,1,High,369.199999999953
116,2,0.25,E,0,High,1,Sad,60,1,Sad,1852.10000000009,0,Low,419.100000000093
117,2,0.25,E,1,Low,0,Happy,0,0,Happy,520.199999999953,1,High,340.300000000047
118,2,0.25,E,1,Low,0,Happy,20,0,Happy,573,1,High,348.199999999953
119,2,0.25,UE,0,High,0,Happy,0,0,Happy,575.200000000186,1,High,309
120,2,0.25,E,0,High,1,Sad,100,1,Sad,614,1,High,348.799999999814
121,3,0.75,E,0,High,0,Happy,0,0,Happy,652.5,1,High,313.40000000014
122,3,0.75,E,0,High,0,Happy,40,0,Happy,1370.69999999995,0,Low,355.699999999953
123,3,0.75,E,0,High,0,Happy,0,0,Happy,596.199999999953,1,High,306.699999999953
124,3,0.75,E,1,Low,1,Sad,80,1,Sad,608.5,1,High,307.40000000014
125,3,0.75,E,1,Low,1,Sad,60,1,Sad,868.600000000093,1,High,408.300000000047
126,3,0.75,UE,0,High,1,Sad,100,1,Sad,670.699999999953,1,High,323.699999999953
127,3,0.75,E,0,High,0,Happy,20,0,Happy,624.199999999953,1,High,325.800000000047
128,3,0.75,E,0,High,0,Happy,40,0,Happy,1099.89999999991,0,Low,487
129,3,0.75,UE,1,Low,0,Happy,20,0,Happy,585.399999999907,1,High,321.90000000014
130,3,0.75,E,1,Low,1,Sad,100,1,Sad,576.699999999953,1,High,316.59999999986
131,3,0.75,E,0,High,0,Happy,40,0,Happy,579.59999999986,1,High,241.799999999814
132,3,0.75,UE,1,Low,0,Happy,40,0,Happy,888.5,1,High,321.700000000186
133,3,0.75,UE,0,High,1,Sad,60,1,Sad,630.899999999907,1,High,320.199999999953
134,3,0.75,E,1,Low,1,Sad,80,1,Sad,608.899999999907,1,High,326.800000000047
135,3,0.75,E,1,Low,1,Sad,60,1,Sad,679.699999999953,1,High,405.799999999814
136,3,0.75,E,1,Low,1,Sad,60,1,Sad,868.699999999953,1,High,333.300000000047
137,3,0.75,E,1,Low,1,Sad,100,1,Sad,549.399999999907,1,High,342.399999999907
138,3,0.75,UE,0,High,1,Sad,80,1,Sad,594.90000000014,1,High,359.699999999953
139,3,0.75,E,0,High,0,Happy,20,0,Happy,622.100000000093,1,High,313.600000000093
140,3,0.75,E,1,Low,1,Sad,80,1,Sad,646.699999999953,1,High,291.5
141,3,0.75,E,1,Low,1,Sad,100,1,Sad,654.699999999953,1,High,301
142,3,0.75,E,0,High,0,Happy,0,0,Happy,633.100000000093,1,High,289.899999999907
143,3,0.75,UE,1,Low,0,Happy,0,0,Happy,650.300000000047,1,High,336.699999999953
144,3,0.75,E,0,High,0,Happy,20,0,Happy,647.899999999907,1,High,309.100000000093
145,4,0.25,E,1,Low,0,Happy,0,0,Happy,654.40000000014,1,High,308.899999999907
146,4,0.25,E,1,Low,0,Happy,20,0,Happy,530.800000000047,1,High,260.600000000093
147,4,0.25,UE,1,Low,1,Sad,80,1,Sad,562.59999999986,1,High,259.199999999953
148,4,0.25,UE,0,High,0,Happy,40,0,Happy,936.300000000047,1,High,334.100000000093
149,4,0.25,E,0,High,1,Sad,80,1,Sad,568.59999999986,1,High,276
150,4,0.25,E,0,High,1,Sad,60,1,Sad,501.600000000093,1,High,274.199999999953
151,4,0.25,E,1,Low,0,Happy,0,0,Happy,514.800000000047,1,High,312.59999999986
152,4,0.25,E,0,High,1,Sad,80,1,Sad,583.800000000047,1,High,265.100000000093
153,4,0.25,E,1,Low,0,Happy,40,0,Happy,840.299999999814,1,High,269
154,4,0.25,E,0,High,1,Sad,100,1,Sad,664.100000000093,1,High,263.300000000047
155,4,0.25,E,0,High,1,Sad,100,1,Sad,647.799999999814,1,High,283.09999999986
156,4,0.25,E,0,High,1,Sad,80,1,Sad,664.300000000047,1,High,280.699999999953
157,4,0.25,E,1,Low,0,Happy,20,0,Happy,594.5,1,High,286.199999999953
158,4,0.25,UE,0,High,0,Happy,20,0,Happy,661.399999999907,1,High,316.100000000093
159,4,0.25,E,0,High,1,Sad,60,1,Sad,702.800000000047,1,High,248.40000000014
160,4,0.25,E,1,Low,0,Happy,40,0,Happy,726.09999999986,1,High,445.600000000093
161,4,0.25,E,1,Low,0,Happy,0,0,Happy,576.199999999953,1,High,330.299999999814
162,4,0.25,UE,1,Low,1,Sad,60,1,Sad,540.700000000186,1,High,312.199999999953
163,4,0.25,E,0,High,1,Sad,100,1,Sad,545.899999999907,1,High,280.399999999907
164,4,0.25,E,0,High,1,Sad,60,0,Happy,2652.30000000005,0,Low,399.5
165,4,0.25,UE,0,High,0,Happy,0,0,Happy,584.899999999907,1,High,239.40000000014
166,4,0.25,E,1,Low,0,Happy,40,0,Happy,1257.19999999995,1,High,535.899999999907
167,4,0.25,E,1,Low,0,Happy,20,0,Happy,653.199999999953,1,High,244.300000000047
168,4,0.25,UE,1,Low,1,Sad,100,1,Sad,542.5,1,High,253.200000000186
169,5,0.75,E,0,High,0,Happy,20,0,Happy,619.699999999953,1,High,270
170,5,0.75,UE,0,High,1,Sad,60,1,Sad,615.600000000093,1,High,265.100000000093
171,5,0.75,E,0,High,0,Happy,0,0,Happy,617.100000000093,1,High,277.300000000047
172,5,0.75,E,0,High,0,Happy,40,0,Happy,1702.70000000019,0,Low,305.399999999907
173,5,0.75,E,1,Low,1,Sad,60,1,Sad,992.699999999953,1,High,309.40000000014
174,5,0.75,E,1,Low,1,Sad,80,1,Sad,606.5,1,High,267.600000000093
175,5,0.75,E,1,Low,1,Sad,60,1,Sad,554.399999999907,1,High,266.199999999953
176,5,0.75,E,0,High,0,Happy,20,0,Happy,556.199999999953,1,High,261.699999999953
177,5,0.75,E,1,Low,1,Sad,100,1,Sad,632.199999999953,1,High,267.399999999907
178,5,0.75,UE,1,Low,0,Happy,0,0,Happy,656.899999999907,1,High,327.299999999814
179,5,0.75,E,0,High,0,Happy,20,0,Happy,664.5,1,High,266.699999999953
180,5,0.75,UE,1,Low,0,Happy,40,0,Happy,1102.40000000014,1,High,496.100000000093
181,5,0.75,E,1,Low,1,Sad,60,1,Sad,636.100000000093,1,High,269.600000000093
182,5,0.75,E,0,High,0,Happy,40,0,Happy,1172.5,0,Low,342.5
183,5,0.75,E,1,Low,1,Sad,80,1,Sad,603.699999999953,1,High,245.200000000186
184,5,0.75,E,1,Low,1,Sad,80,1,Sad,557,1,High,231.899999999907
185,5,0.75,UE,0,High,1,Sad,80,1,Sad,580.300000000047,1,High,261.5
186,5,0.75,UE,0,High,1,Sad,100,1,Sad,535.59999999986,1,High,282.5
187,5,0.75,E,0,High,0,Happy,0,0,Happy,563.300000000047,1,High,251
188,5,0.75,E,1,Low,1,Sad,100,1,Sad,570.600000000093,1,High,257.100000000093
189,5,0.75,UE,1,Low,0,Happy,20,0,Happy,617.699999999953,1,High,265.800000000047
190,5,0.75,E,0,High,0,Happy,0,0,Happy,588,1,High,297.5
191,5,0.75,E,1,Low,1,Sad,100,1,Sad,624.5,1,High,281.800000000047
192,5,0.75,E,0,High,0,Happy,40,0,Happy,605.300000000047,1,High,265.199999999953
