Trial_N,Block_N,Contingency,Expectedness,Cue_idx,Cue_name,Outcome_idx,Outcome_name,Outcome_p_sad,Response_idx,Response_name,Response_RT,Confidence_idx,Confidence_name,Confidence_RT
1,1,0.75,E,1,Low,1,Sad,80,1,Sad,2699.40000000596,0,Low,579.79999999702
2,1,0.75,E,1,Low,1,Sad,100,1,Sad,885.29999999702,0,Low,1119.39999999106
3,1,0.75,E,1,Low,1,Sad,80,1,Sad,1632.60000000894,0,Low,247.20000000298
4,1,0.75,E,0,High,0,Happy,20,0,Happy,1279.40000000596,1,High,318.100000008941
5,1,0.75,E,0,High,0,Happy,0,0,Happy,1393.40000000596,1,High,426.600000008941
6,1,0.75,UE,0,High,1,Sad,100,1,Sad,1190.5,1,High,355
7,1,0.75,E,1,Low,1,Sad,60,0,Happy,1710.70000000298,0,Low,215.800000011921
8,1,0.75,E,0,High,0,Happy,20,0,Happy,1078.39999999106,1,High,664.20000000298
9,1,0.75,UE,1,Low,0,Happy,20,0,Happy,968.40000000596,0,Low,275.79999999702
10,1,0.75,E,1,Low,1,Sad,100,1,Sad,1714.69999998808,0,Low,846.29999999702
11,1,0.75,E,1,Low,1,Sad,60,0,Happy,1124.39999999106,0,Low,297.79999999702
12,1,0.75,E,0,High,0,Happy,40,0,Happy,931.40000000596,1,High,270.90000000596
13,1,0.75,E,1,Low,1,Sad,60,0,Happy,862.5,1,High,1257.70000000298
14,1,0.75,E,1,Low,1,Sad,60,0,Happy,1186.30000001192,0,Low,385.399999991059
15,1,0.75,E,1,Low,1,Sad,60,0,Happy,1115.80000001192,0,Low,292.79999999702
16,1,0.75,UE,0,High,1,Sad,80,1,Sad,1353.5,1,High,442.699999988079
17,1,0.75,E,0,High,0,Happy,0,0,Happy,1409.20000000298,1,High,435
18,1,0.75,E,0,High,0,Happy,20,0,Happy,1447.69999998808,1,High,469.09999999404
19,1,0.75,E,1,Low,1,Sad,80,0,Happy,2286.09999999404,0,Low,607.899999991059
20,1,0.75,E,0,High,0,Happy,0,0,Happy,1253.5,1,High,262
21,1,0.75,UE,0,High,1,Sad,100,1,Sad,2046.70000000298,0,Low,325.40000000596
22,1,0.75,E,0,High,0,Happy,20,0,Happy,1909,1,High,1646.20000000298
23,1,0.75,E,1,Low,1,Sad,60,0,Happy,1442.29999999702,0,Low,263.70000000298
24,1,0.75,E,0,High,0,Happy,40,0,Happy,1318.70000000298,1,High,338.29999999702
25,1,0.75,UE,1,Low,0,Happy,0,0,Happy,1149.5,0,Low,292
26,1,0.75,E,1,Low,1,Sad,80,1,Sad,1605.29999999702,0,Low,245.600000008941
27,1,0.75,E,0,High,0,Happy,0,0,Happy,1081,1,High,298.5
28,1,0.75,E,0,High,0,Happy,0,0,Happy,1141.29999999702,1,High,310.79999999702
29,1,0.75,E,1,Low,1,Sad,60,0,Happy,1030.5,0,Low,252.29999999702
30,1,0.75,E,1,Low,1,Sad,100,1,Sad,1346,0,Low,302.79999999702
31,1,0.75,UE,1,Low,0,Happy,40,0,Happy,1798.40000000596,0,Low,360.59999999404
32,1,0.75,UE,0,High,1,Sad,100,1,Sad,1137,1,High,340.79999999702
33,1,0.75,E,0,High,0,Happy,40,0,Happy,1147,1,High,497.90000000596
34,1,0.75,E,0,High,0,Happy,40,0,Happy,1114.59999999404,1,High,472.399999991059
35,1,0.75,E,1,Low,1,Sad,80,1,Sad,1890.09999999404,0,Low,429.899999991059
36,1,0.75,E,1,Low,1,Sad,60,0,Happy,1129.29999999702,0,Low,211.79999999702
37,1,0.75,E,0,High,0,Happy,40,0,Happy,976,1,High,276.70000000298
38,1,0.75,UE,0,High,1,Sad,80,1,Sad,1196.19999998808,1,High,366
39,1,0.75,E,1,Low,1,Sad,60,0,Happy,1503.40000000596,0,Low,178
40,1,0.75,E,0,High,0,Happy,40,0,Happy,1250.89999999106,0,Low,182.90000000596
41,1,0.75,UE,1,Low,0,Happy,20,0,Happy,1340.5,0,Low,384.699999988079
42,1,0.75,E,0,High,0,Happy,20,0,Happy,958.600000008941,1,High,413
43,1,0.75,E,1,Low,1,Sad,100,1,Sad,1083.40000000596,0,Low,353.100000008941
44,1,0.75,UE,0,High,1,Sad,80,1,Sad,1352.20000000298,1,High,981.29999999702
45,1,0.75,E,1,Low,1,Sad,100,1,Sad,2047,0,Low,245.79999999702
46,1,0.75,E,0,High,0,Happy,0,0,Happy,1441.90000000596,1,High,765.29999999702
47,1,0.75,E,1,Low,1,Sad,80,1,Sad,1916.69999998808,0,Low,218.100000008941
48,1,0.75,UE,1,Low,0,Happy,20,0,Happy,1469.89999999106,0,Low,878
49,1,0.75,E,0,High,0,Happy,0,0,Happy,1692.69999998808,0,Low,401
50,1,0.75,E,1,Low,1,Sad,80,1,Sad,1431.90000000596,0,Low,262.20000000298
51,1,0.75,E,0,High,0,Happy,20,0,Happy,1118,1,High,401.79999999702
52,1,0.75,UE,0,High,1,Sad,60,0,Happy,1181.30000001192,1,High,437.09999999404
53,1,0.75,UE,1,Low,0,Happy,0,0,Happy,1373.10000000894,0,Low,280.399999991059
54,1,0.75,E,1,Low,1,Sad,100,1,Sad,1117.29999999702,0,Low,284.59999999404
55,1,0.75,E,1,Low,1,Sad,100,1,Sad,1104,0,Low,393.20000000298
56,1,0.75,E,0,High,0,Happy,0,0,Happy,1036,1,High,256.199999988079
57,1,0.75,E,1,Low,1,Sad,100,1,Sad,1306.29999999702,0,Low,206.40000000596
58,1,0.75,UE,0,High,1,Sad,100,1,Sad,1053.20000000298,0,Low,288.199999988079
59,1,0.75,E,1,Low,1,Sad,80,1,Sad,1181.80000001192,0,Low,311.59999999404
60,1,0.75,E,0,High,0,Happy,20,0,Happy,1413.79999999702,1,High,861.5
61,1,0.75,UE,1,Low,0,Happy,40,0,Happy,1847.79999999702,0,Low,246.5
62,1,0.75,UE,1,Low,0,Happy,20,0,Happy,1273.10000000894,0,Low,212.100000008941
63,1,0.75,E,0,High,0,Happy,20,0,Happy,1261.60000000894,1,High,526.70000000298
64,1,0.75,E,1,Low,1,Sad,60,0,Happy,1286.20000000298,0,Low,237.29999999702
65,1,0.75,E,0,High,0,Happy,40,0,Happy,1245.5,1,High,219.79999999702
66,1,0.75,E,1,Low,1,Sad,80,1,Sad,1179.20000000298,0,Low,294.199999988079
67,1,0.75,UE,1,Low,0,Happy,0,0,Happy,1771.30000001192,0,Low,1149.29999999702
68,1,0.75,E,0,High,0,Happy,40,0,Happy,996.899999991059,1,High,430.79999999702
69,1,0.75,E,0,High,0,Happy,40,0,Happy,787.5,1,High,209.29999999702
70,1,0.75,E,0,High,0,Happy,0,0,Happy,1155.10000000894,1,High,279.20000000298
71,1,0.75,UE,1,Low,0,Happy,0,0,Happy,1124.09999999404,0,Low,232.29999999702
72,1,0.75,E,1,Low,1,Sad,60,0,Happy,1652.60000000894,0,Low,1251.60000000894
73,1,0.75,E,0,High,0,Happy,40,0,Happy,1147.5,1,High,253.29999999702
74,1,0.75,E,1,Low,1,Sad,100,1,Sad,1904.09999999404,1,High,1329
75,1,0.75,E,1,Low,1,Sad,100,1,Sad,1004,0,Low,214.699999988079
76,1,0.75,E,0,High,0,Happy,20,0,Happy,425.70000000298,1,High,198.20000000298
77,1,0.75,UE,0,High,1,Sad,60,0,Happy,1988.09999999404,0,Low,941.70000000298
78,1,0.75,E,0,High,0,Happy,0,0,Happy,2274.90000000596,1,High,431.5
79,1,0.75,E,0,High,0,Happy,40,0,Happy,883.90000000596,1,High,237.59999999404
80,1,0.75,UE,0,High,1,Sad,60,1,Sad,1322.20000000298,0,Low,251.79999999702
81,1,0.75,E,0,High,0,Happy,40,0,Happy,1199.5,1,High,203.5
82,1,0.75,UE,0,High,1,Sad,80,0,Happy,1678.70000000298,1,,4005.5
83,1,0.75,E,0,High,0,Happy,0,NaN,,NaN,1,,4002.20000000007
84,1,0.75,E,0,High,0,Happy,20,0,Happy,2152.5,1,High,215.5
85,1,0.75,E,1,Low,1,Sad,100,0,Happy,1425.09999999404,1,High,202.90000000596
86,1,0.75,E,1,Low,1,Sad,100,1,Sad,1431.20000000298,0,Low,339.09999999404
87,1,0.75,UE,1,Low,0,Happy,40,0,Happy,1393.20000000298,0,Low,1029.89999999106
88,1,0.75,E,1,Low,1,Sad,80,0,Happy,2293.70000000298,0,Low,292.600000008941
89,1,0.75,E,0,High,0,Happy,0,0,Happy,834.59999999404,1,High,263.70000000298
90,1,0.75,UE,0,High,1,Sad,60,0,Happy,2283.89999999106,0,Low,444.20000000298
91,1,0.75,E,1,Low,1,Sad,60,0,Happy,1357,0,Low,222.70000000298
92,1,0.75,E,1,Low,1,Sad,80,1,Sad,1610.20000000298,0,Low,276.79999999702
93,1,0.75,E,0,High,0,Happy,20,0,Happy,2350.60000000894,1,High,746.100000008941
94,1,0.75,E,0,High,0,Happy,20,0,Happy,1153.5,1,High,260.699999988079
95,1,0.75,UE,1,Low,0,Happy,40,0,Happy,1266,0,Low,236.800000011921
96,1,0.75,E,1,Low,1,Sad,80,0,Happy,1363.70000000298,0,Low,264.40000000596
97,2,0.25,E,1,Low,0,Happy,0,0,Happy,3220.90000000596,0,Low,375
98,2,0.25,UE,1,Low,1,Sad,80,1,Sad,971.199999988079,0,Low,210.5
99,2,0.25,E,1,Low,0,Happy,40,0,Happy,1445.09999999404,0,Low,267
100,2,0.25,E,1,Low,0,Happy,40,1,Sad,2743.39999999106,0,Low,258.70000000298
101,2,0.25,E,0,High,1,Sad,60,0,Happy,1409.5,1,High,589.90000000596
102,2,0.25,E,1,Low,0,Happy,20,0,Happy,936,0,Low,232.399999991059
103,2,0.25,E,0,High,1,Sad,80,0,Happy,1401.70000000298,0,Low,283.90000000596
104,2,0.25,UE,1,Low,1,Sad,100,1,Sad,1245.10000000894,0,Low,342.09999999404
105,2,0.25,E,1,Low,0,Happy,20,0,Happy,1371.20000000298,0,Low,262.899999991059
106,2,0.25,UE,1,Low,1,Sad,60,0,Happy,1652.5,0,Low,256.100000008941
107,2,0.25,UE,0,High,0,Happy,20,0,Happy,1225.79999999702,1,High,293.899999991059
108,2,0.25,E,0,High,1,Sad,100,0,Happy,1757.10000000894,0,Low,866
109,2,0.25,E,1,Low,0,Happy,40,0,Happy,1937.59999999404,0,Low,186.5
110,2,0.25,E,0,High,1,Sad,80,1,Sad,2339.40000000596,1,High,482
111,2,0.25,E,0,High,1,Sad,60,0,Happy,1390.40000000596,1,High,382.20000000298
112,2,0.25,E,1,Low,0,Happy,0,0,Happy,846.5,0,Low,332.399999991059
113,2,0.25,UE,0,High,0,Happy,40,0,Happy,1640.79999999702,1,High,384.70000000298
114,2,0.25,E,0,High,1,Sad,80,1,Sad,2052.30000001192,1,High,414.399999991059
115,2,0.25,E,0,High,1,Sad,100,1,Sad,1364.5,1,High,341.100000008941
116,2,0.25,E,0,High,1,Sad,60,0,Happy,2255.59999999404,1,High,390
117,2,0.25,E,1,Low,0,Happy,0,0,Happy,1020.20000000298,0,Low,250.79999999702
118,2,0.25,E,1,Low,0,Happy,20,0,Happy,1104.29999999702,0,Low,200.300000011921
119,2,0.25,UE,0,High,0,Happy,0,0,Happy,1052.59999999404,1,High,241.399999991059
120,2,0.25,E,0,High,1,Sad,100,1,Sad,1815.69999998808,1,High,483.79999999702
121,3,0.75,E,0,High,0,Happy,0,0,Happy,2213.40000000596,1,High,414.20000000298
122,3,0.75,E,0,High,0,Happy,40,0,Happy,1559.79999999702,0,Low,1678
123,3,0.75,E,0,High,0,Happy,0,0,Happy,567.20000000298,1,High,306.5
124,3,0.75,E,1,Low,1,Sad,80,1,Sad,1334.70000000298,0,Low,244.600000008941
125,3,0.75,E,1,Low,1,Sad,60,0,Happy,1345.20000000298,0,Low,209
126,3,0.75,UE,0,High,1,Sad,100,1,Sad,2494.30000001192,0,Low,577.20000000298
127,3,0.75,E,0,High,0,Happy,20,0,Happy,2045.30000001192,1,High,1295.40000000596
128,3,0.75,E,0,High,0,Happy,40,0,Happy,2363.79999999702,1,High,343.100000008941
129,3,0.75,UE,1,Low,0,Happy,20,0,Happy,969.399999991059,0,Low,374.29999999702
130,3,0.75,E,1,Low,1,Sad,100,1,Sad,1819.89999999106,0,Low,672.70000000298
131,3,0.75,E,0,High,0,Happy,40,0,Happy,1442,1,High,226.899999991059
132,3,0.75,UE,1,Low,0,Happy,40,0,Happy,877.29999999702,0,Low,368
133,3,0.75,UE,0,High,1,Sad,60,0,Happy,1305.29999999702,0,Low,194.20000000298
134,3,0.75,E,1,Low,1,Sad,80,1,Sad,943.29999999702,0,Low,1224.89999999106
135,3,0.75,E,1,Low,1,Sad,60,0,Happy,1574.59999999404,1,High,307.40000000596
136,3,0.75,E,1,Low,1,Sad,60,1,Sad,2170.39999999106,0,Low,637.20000000298
137,3,0.75,E,1,Low,1,Sad,100,1,Sad,698.90000000596,0,Low,273
138,3,0.75,UE,0,High,1,Sad,80,1,Sad,1711.20000000298,1,High,352.90000000596
139,3,0.75,E,0,High,0,Happy,20,0,Happy,1442,1,High,331.600000008941
140,3,0.75,E,1,Low,1,Sad,80,1,Sad,1297.20000000298,0,Low,426.09999999404
141,3,0.75,E,1,Low,1,Sad,100,1,Sad,519.09999999404,0,Low,231.29999999702
142,3,0.75,E,0,High,0,Happy,0,0,Happy,853.40000000596,1,High,445
143,3,0.75,UE,1,Low,0,Happy,0,0,Happy,1173.10000000894,0,Low,264.70000000298
144,3,0.75,E,0,High,0,Happy,20,0,Happy,1037.90000000596,1,High,349.90000000596
145,4,0.25,E,1,Low,0,Happy,0,0,Happy,841.600000008941,0,Low,218.399999991059
146,4,0.25,E,1,Low,0,Happy,20,0,Happy,1629.89999999106,1,High,753.5
147,4,0.25,UE,1,Low,1,Sad,80,1,Sad,1660.10000000894,0,Low,274.20000000298
148,4,0.25,UE,0,High,0,Happy,40,0,Happy,1148.40000000596,1,High,253.5
149,4,0.25,E,0,High,1,Sad,80,1,Sad,1310.09999999404,1,High,493.70000000298
150,4,0.25,E,0,High,1,Sad,60,1,Sad,1408.90000000596,1,High,398
151,4,0.25,E,1,Low,0,Happy,0,0,Happy,1901.79999999702,0,Low,279
152,4,0.25,E,0,High,1,Sad,80,1,Sad,1963.29999999702,0,Low,395.5
153,4,0.25,E,1,Low,0,Happy,40,0,Happy,1392.5,0,Low,211.59999999404
154,4,0.25,E,0,High,1,Sad,100,1,Sad,1243.60000000894,1,High,264
155,4,0.25,E,0,High,1,Sad,100,1,Sad,1795.59999999404,1,High,252
156,4,0.25,E,0,High,1,Sad,80,1,Sad,1089.79999999702,1,High,396.699999988079
157,4,0.25,E,1,Low,0,Happy,20,0,Happy,1220.89999999106,0,Low,241.79999999702
158,4,0.25,UE,0,High,0,Happy,20,0,Happy,2343.09999999404,1,High,629
159,4,0.25,E,0,High,1,Sad,60,NaN,,3998.59999999986,1,High,1418.19999998808
160,4,0.25,E,1,Low,0,Happy,40,0,Happy,1831.20000000298,0,Low,239.100000008941
161,4,0.25,E,1,Low,0,Happy,0,0,Happy,1749.79999999702,0,Low,253.79999999702
162,4,0.25,UE,1,Low,1,Sad,60,1,Sad,1442.79999999702,0,Low,230.59999999404
163,4,0.25,E,0,High,1,Sad,100,1,Sad,1147.39999999106,1,High,315.79999999702
164,4,0.25,E,0,High,1,Sad,60,0,Happy,827.79999999702,1,High,228.70000000298
165,4,0.25,UE,0,High,0,Happy,0,0,Happy,882.70000000298,1,High,511.5
166,4,0.25,E,1,Low,0,Happy,40,0,Happy,1034,1,High,305
167,4,0.25,E,1,Low,0,Happy,20,0,Happy,890.199999988079,0,Low,186
168,4,0.25,UE,1,Low,1,Sad,100,0,Happy,1264.40000000596,0,Low,1327.79999999702
169,5,0.75,E,0,High,0,Happy,20,0,Happy,1333.10000000894,1,High,531.20000000298
170,5,0.75,UE,0,High,1,Sad,60,1,Sad,2963.29999999702,1,,3999.5
171,5,0.75,E,0,High,0,Happy,0,0,Happy,3683.70000000298,1,,4008
172,5,0.75,E,0,High,0,Happy,40,0,Happy,1720.19999998808,0,Low,294.40000000596
173,5,0.75,E,1,Low,1,Sad,60,0,Happy,1271.79999999702,0,Low,222.79999999702
174,5,0.75,E,1,Low,1,Sad,80,1,Sad,982.5,0,Low,948.20000000298
175,5,0.75,E,1,Low,1,Sad,60,0,Happy,1433,0,Low,205.29999999702
176,5,0.75,E,0,High,0,Happy,20,0,Happy,1382.90000000596,1,High,261
177,5,0.75,E,1,Low,1,Sad,100,1,Sad,1227.09999999404,0,Low,300.40000000596
178,5,0.75,UE,1,Low,0,Happy,0,0,Happy,1344.29999999702,0,Low,734.40000000596
179,5,0.75,E,0,High,0,Happy,20,0,Happy,1036.29999999702,1,High,296.29999999702
180,5,0.75,UE,1,Low,0,Happy,40,0,Happy,1240.69999998808,0,Low,174.79999999702
181,5,0.75,E,1,Low,1,Sad,60,0,Happy,1380.10000000894,0,Low,236.5
182,5,0.75,E,0,High,0,Happy,40,0,Happy,1007.5,1,High,250.399999991059
183,5,0.75,E,1,Low,1,Sad,80,1,Sad,1301.80000001192,0,Low,235.600000008941
184,5,0.75,E,1,Low,1,Sad,80,1,Sad,1096.39999999106,0,Low,253.899999991059
185,5,0.75,UE,0,High,1,Sad,80,1,Sad,1647.90000000596,0,Low,955.59999999404
186,5,0.75,UE,0,High,1,Sad,100,1,Sad,1063.29999999702,1,High,1070.20000000298
187,5,0.75,E,0,High,0,Happy,0,0,Happy,1351.10000000894,1,High,346.79999999702
188,5,0.75,E,1,Low,1,Sad,100,1,Sad,1074.79999999702,0,Low,253.59999999404
189,5,0.75,UE,1,Low,0,Happy,20,0,Happy,1315,0,Low,164.600000008941
190,5,0.75,E,0,High,0,Happy,0,0,Happy,1036.79999999702,1,High,183
191,5,0.75,E,1,Low,1,Sad,100,1,Sad,807.90000000596,0,Low,176.59999999404
192,5,0.75,E,0,High,0,Happy,40,0,Happy,883,1,High,197.70000000298
