Trial_N,Block_N,Contingency,Expectedness,Cue_idx,Cue_name,Outcome_idx,Outcome_name,Outcome_p_sad,Response_idx,Response_name,Response_RT,Confidence_idx,Confidence_name,Confidence_RT
1,1,0.75,E,1,Low,1,Sad,80,0,Happy,2005,0,Low,520.000000000002
2,1,0.75,E,1,Low,1,Sad,100,1,Sad,539,1,High,360
3,1,0.75,E,1,Low,1,Sad,80,1,Sad,422,1,High,299.000000000002
4,1,0.75,E,0,High,0,Happy,20,0,Happy,556,1,High,203
5,1,0.75,E,0,High,0,Happy,0,0,Happy,504.999999999996,1,High,223
6,1,0.75,UE,0,High,1,Sad,100,1,Sad,534,1,High,206.000000000004
7,1,0.75,E,1,Low,1,Sad,60,1,Sad,626.999999999996,1,High,264
8,1,0.75,E,0,High,0,Happy,20,0,Happy,522,1,High,211
9,1,0.75,UE,1,Low,0,Happy,20,0,Happy,361.999999999996,1,High,240
10,1,0.75,E,1,Low,1,Sad,100,1,Sad,1044,1,High,256.999999999996
11,1,0.75,E,1,Low,1,Sad,60,1,Sad,695,1,High,229
12,1,0.75,E,0,High,0,Happy,40,0,Happy,627,1,High,210
13,1,0.75,E,1,Low,1,Sad,60,1,Sad,1486,1,High,204
14,1,0.75,E,1,Low,1,Sad,60,1,Sad,515,1,High,199
15,1,0.75,E,1,Low,1,Sad,60,1,Sad,378,1,High,182
16,1,0.75,UE,0,High,1,Sad,80,1,Sad,627,1,High,214
17,1,0.75,E,0,High,0,Happy,0,0,Happy,618,1,High,3156
18,1,0.75,E,0,High,0,Happy,20,0,Happy,455,1,High,198
19,1,0.75,E,1,Low,1,Sad,80,1,Sad,506.999999999993,1,High,184
20,1,0.75,E,0,High,0,Happy,0,0,Happy,381.999999999993,1,High,201
21,1,0.75,UE,0,High,1,Sad,100,1,Sad,840,1,High,260
22,1,0.75,E,0,High,0,Happy,20,0,Happy,877.000000000007,1,High,974.000000000007
23,1,0.75,E,1,Low,1,Sad,60,1,Sad,545,1,High,207
24,1,0.75,E,0,High,0,Happy,40,0,Happy,409,1,High,187
25,1,0.75,UE,1,Low,0,Happy,0,0,Happy,486,1,High,196
26,1,0.75,E,1,Low,1,Sad,80,1,Sad,516,1,High,232
27,1,0.75,E,0,High,0,Happy,0,0,Happy,1186,1,High,210.000000000015
28,1,0.75,E,0,High,0,Happy,0,0,Happy,581,1,High,186
29,1,0.75,E,1,Low,1,Sad,60,1,Sad,545.000000000015,1,High,182
30,1,0.75,E,1,Low,1,Sad,100,1,Sad,900,1,High,204
31,1,0.75,UE,1,Low,0,Happy,40,0,Happy,832,1,High,173
32,1,0.75,UE,0,High,1,Sad,100,1,Sad,600,1,High,193
33,1,0.75,E,0,High,0,Happy,40,0,Happy,589.000000000015,1,High,185
34,1,0.75,E,0,High,0,Happy,40,0,Happy,335,1,High,200
35,1,0.75,E,1,Low,1,Sad,80,1,Sad,635,1,High,166
36,1,0.75,E,1,Low,1,Sad,60,1,Sad,454,1,High,199.999999999985
37,1,0.75,E,0,High,0,Happy,40,0,Happy,469.999999999985,1,High,191
38,1,0.75,UE,0,High,1,Sad,80,1,Sad,518.000000000015,1,High,211
39,1,0.75,E,1,Low,1,Sad,60,1,Sad,630,1,High,180
40,1,0.75,E,0,High,0,Happy,40,0,Happy,1080,1,High,189.999999999985
41,1,0.75,UE,1,Low,0,Happy,20,0,Happy,654,1,High,179
42,1,0.75,E,0,High,0,Happy,20,0,Happy,473,1,High,202.000000000015
43,1,0.75,E,1,Low,1,Sad,100,1,Sad,483,1,High,178
44,1,0.75,UE,0,High,1,Sad,80,1,Sad,487,1,High,154
45,1,0.75,E,1,Low,1,Sad,100,1,Sad,529,1,High,197.000000000015
46,1,0.75,E,0,High,0,Happy,0,0,Happy,482,1,High,245.000000000015
47,1,0.75,E,1,Low,1,Sad,80,1,Sad,488.999999999985,1,High,192
48,1,0.75,UE,1,Low,0,Happy,20,0,Happy,434.000000000015,1,High,173
49,1,0.75,E,0,High,0,Happy,0,0,Happy,357.999999999985,1,High,236.999999999985
50,1,0.75,E,1,Low,1,Sad,80,1,Sad,584,1,High,210.000000000015
51,1,0.75,E,0,High,0,Happy,20,0,Happy,441.000000000015,1,High,215.000000000015
52,1,0.75,UE,0,High,1,Sad,60,1,Sad,452,1,High,187
53,1,0.75,UE,1,Low,0,Happy,0,0,Happy,419,1,High,152
54,1,0.75,E,1,Low,1,Sad,100,1,Sad,572,1,High,194
55,1,0.75,E,1,Low,1,Sad,100,1,Sad,561,1,High,135
56,1,0.75,E,0,High,0,Happy,0,0,Happy,445,1,High,163
57,1,0.75,E,1,Low,1,Sad,100,1,Sad,1044,1,High,170
58,1,0.75,UE,0,High,1,Sad,100,1,Sad,468,1,High,194.999999999971
59,1,0.75,E,1,Low,1,Sad,80,1,Sad,400,1,High,222
60,1,0.75,E,0,High,0,Happy,20,0,Happy,461,1,High,173
61,1,0.75,UE,1,Low,0,Happy,40,0,Happy,1972,1,High,154
62,1,0.75,UE,1,Low,0,Happy,20,0,Happy,483,1,High,190
63,1,0.75,E,0,High,0,Happy,20,0,Happy,417,1,High,174.999999999971
64,1,0.75,E,1,Low,1,Sad,60,1,Sad,478.999999999971,1,High,198
65,1,0.75,E,0,High,0,Happy,40,0,Happy,583,1,High,174
66,1,0.75,E,1,Low,1,Sad,80,1,Sad,471.999999999971,1,High,233
67,1,0.75,UE,1,Low,0,Happy,0,0,Happy,434.999999999971,1,High,218
68,1,0.75,E,0,High,0,Happy,40,0,Happy,685,1,High,226
69,1,0.75,E,0,High,0,Happy,40,0,Happy,330,1,High,220
70,1,0.75,E,0,High,0,Happy,0,0,Happy,901,1,High,199
71,1,0.75,UE,1,Low,0,Happy,0,0,Happy,226,1,High,215
72,1,0.75,E,1,Low,1,Sad,60,1,Sad,622,1,High,226
73,1,0.75,E,0,High,0,Happy,40,0,Happy,640,1,High,185
74,1,0.75,E,1,Low,1,Sad,100,1,Sad,631,1,High,207
75,1,0.75,E,1,Low,1,Sad,100,1,Sad,832,1,High,261
76,1,0.75,E,0,High,0,Happy,20,0,Happy,494,1,High,358.000000000029
77,1,0.75,UE,0,High,1,Sad,60,1,Sad,615,1,High,233
78,1,0.75,E,0,High,0,Happy,0,0,Happy,407,1,High,334
79,1,0.75,E,0,High,0,Happy,40,0,Happy,481,1,High,274
80,1,0.75,UE,0,High,1,Sad,60,1,Sad,802,1,High,348
81,1,0.75,E,0,High,0,Happy,40,0,Happy,817.000000000029,1,High,212.000000000029
82,1,0.75,UE,0,High,1,Sad,80,1,Sad,527,1,High,232
83,1,0.75,E,0,High,0,Happy,0,0,Happy,488,1,High,390.000000000029
84,1,0.75,E,0,High,0,Happy,20,0,Happy,464,1,High,336
85,1,0.75,E,1,Low,1,Sad,100,1,Sad,446,1,High,221
86,1,0.75,E,1,Low,1,Sad,100,1,Sad,441,1,High,245
87,1,0.75,UE,1,Low,0,Happy,40,0,Happy,417,1,High,290
88,1,0.75,E,1,Low,1,Sad,80,1,Sad,423.999999999971,1,High,239
89,1,0.75,E,0,High,0,Happy,0,0,Happy,371,1,High,257
90,1,0.75,UE,0,High,1,Sad,60,1,Sad,500,1,High,234
91,1,0.75,E,1,Low,1,Sad,60,1,Sad,444.000000000029,1,High,226
92,1,0.75,E,1,Low,1,Sad,80,1,Sad,385,1,High,246
93,1,0.75,E,0,High,0,Happy,20,0,Happy,448.000000000029,1,High,304
94,1,0.75,E,0,High,0,Happy,20,0,Happy,1340.99999999997,1,High,241
95,1,0.75,UE,1,Low,0,Happy,40,0,Happy,973,1,High,302
96,1,0.75,E,1,Low,1,Sad,80,1,Sad,664,1,High,241
97,2,0.25,E,1,Low,0,Happy,0,0,Happy,470.999999999971,1,High,286
98,2,0.25,UE,1,Low,1,Sad,80,1,Sad,1348.99999999997,1,High,240.999999999971
99,2,0.25,E,1,Low,0,Happy,40,0,Happy,491,1,High,535
100,2,0.25,E,1,Low,0,Happy,40,0,Happy,437.999999999971,1,High,395.000000000029
101,2,0.25,E,0,High,1,Sad,60,1,Sad,649.999999999971,1,High,245
102,2,0.25,E,1,Low,0,Happy,20,0,Happy,488,1,High,291
103,2,0.25,E,0,High,1,Sad,80,1,Sad,457,1,High,226
104,2,0.25,UE,1,Low,1,Sad,100,1,Sad,1031.99999999997,1,High,239.000000000029
105,2,0.25,E,1,Low,0,Happy,20,0,Happy,497.000000000029,1,High,305
106,2,0.25,UE,1,Low,1,Sad,60,1,Sad,2167,0,Low,501
107,2,0.25,UE,0,High,0,Happy,20,0,Happy,1077,1,High,493
108,2,0.25,E,0,High,1,Sad,100,1,Sad,549,1,High,258
109,2,0.25,E,1,Low,0,Happy,40,0,Happy,960,1,High,333
110,2,0.25,E,0,High,1,Sad,80,1,Sad,1633,1,High,945
111,2,0.25,E,0,High,1,Sad,60,1,Sad,704,1,High,286
112,2,0.25,E,1,Low,0,Happy,0,0,Happy,476,1,High,286
113,2,0.25,UE,0,High,0,Happy,40,0,Happy,550,1,High,366
114,2,0.25,E,0,High,1,Sad,80,1,Sad,537,1,High,276
115,2,0.25,E,0,High,1,Sad,100,1,Sad,365,1,High,321
116,2,0.25,E,0,High,1,Sad,60,1,Sad,341,1,High,278.999999999942
117,2,0.25,E,1,Low,0,Happy,0,0,Happy,433.999999999942,1,High,382.000000000058
118,2,0.25,E,1,Low,0,Happy,20,0,Happy,291,1,High,284
119,2,0.25,UE,0,High,0,Happy,0,0,Happy,333,1,High,270
120,2,0.25,E,0,High,1,Sad,100,1,Sad,451,1,High,221
121,3,0.75,E,0,High,0,Happy,0,0,Happy,541,1,High,220
122,3,0.75,E,0,High,0,Happy,40,1,Sad,824,1,High,264.999999999942
123,3,0.75,E,0,High,0,Happy,0,0,Happy,378.000000000058,1,High,233
124,3,0.75,E,1,Low,1,Sad,80,1,Sad,407,1,High,278
125,3,0.75,E,1,Low,1,Sad,60,1,Sad,384,1,High,229
126,3,0.75,UE,0,High,1,Sad,100,1,Sad,848,1,High,280
127,3,0.75,E,0,High,0,Happy,20,0,Happy,710.000000000058,1,High,208
128,3,0.75,E,0,High,0,Happy,40,0,Happy,496,1,High,183
129,3,0.75,UE,1,Low,0,Happy,20,0,Happy,340.999999999942,1,High,169
130,3,0.75,E,1,Low,1,Sad,100,1,Sad,721,1,High,241
131,3,0.75,E,0,High,0,Happy,40,0,Happy,489.000000000058,1,High,197
132,3,0.75,UE,1,Low,0,Happy,40,0,Happy,344,1,High,350
133,3,0.75,UE,0,High,1,Sad,60,1,Sad,559,1,High,232
134,3,0.75,E,1,Low,1,Sad,80,1,Sad,911,1,High,231
135,3,0.75,E,1,Low,1,Sad,60,1,Sad,397,1,High,233
136,3,0.75,E,1,Low,1,Sad,60,1,Sad,380.999999999942,1,High,261
137,3,0.75,E,1,Low,1,Sad,100,1,Sad,285.000000000058,1,High,289
138,3,0.75,UE,0,High,1,Sad,80,1,Sad,306.000000000058,1,High,326
139,3,0.75,E,0,High,0,Happy,20,0,Happy,701,1,High,236
140,3,0.75,E,1,Low,1,Sad,80,1,Sad,484.999999999942,1,High,242
141,3,0.75,E,1,Low,1,Sad,100,1,Sad,366,1,High,260.999999999942
142,3,0.75,E,0,High,0,Happy,0,0,Happy,426.000000000058,1,High,297.000000000058
143,3,0.75,UE,1,Low,0,Happy,0,0,Happy,254,1,High,224
144,3,0.75,E,0,High,0,Happy,20,0,Happy,430,1,High,276
145,4,0.25,E,1,Low,0,Happy,0,0,Happy,277,1,High,225
146,4,0.25,E,1,Low,0,Happy,20,0,Happy,196,1,High,238
147,4,0.25,UE,1,Low,1,Sad,80,1,Sad,518,1,High,226
148,4,0.25,UE,0,High,0,Happy,40,0,Happy,474,1,High,432
149,4,0.25,E,0,High,1,Sad,80,0,Happy,265.000000000058,0,Low,937
150,4,0.25,E,0,High,1,Sad,60,1,Sad,528,1,High,282
151,4,0.25,E,1,Low,0,Happy,0,0,Happy,397,1,High,213
152,4,0.25,E,0,High,1,Sad,80,1,Sad,370,1,High,263
153,4,0.25,E,1,Low,0,Happy,40,1,Sad,419,1,High,363.999999999942
154,4,0.25,E,0,High,1,Sad,100,0,Happy,390,0,Low,836
155,4,0.25,E,0,High,1,Sad,100,1,Sad,461,1,High,332
156,4,0.25,E,0,High,1,Sad,80,1,Sad,504.000000000058,1,High,335
157,4,0.25,E,1,Low,0,Happy,20,0,Happy,432,1,High,219
158,4,0.25,UE,0,High,0,Happy,20,0,Happy,568,1,High,255
159,4,0.25,E,0,High,1,Sad,60,1,Sad,507,1,High,258.999999999942
160,4,0.25,E,1,Low,0,Happy,40,1,Sad,425,0,Low,812
161,4,0.25,E,1,Low,0,Happy,0,0,Happy,405,1,High,277.999999999942
162,4,0.25,UE,1,Low,1,Sad,60,1,Sad,568,1,High,287
163,4,0.25,E,0,High,1,Sad,100,1,Sad,1001,1,High,299.000000000058
164,4,0.25,E,0,High,1,Sad,60,1,Sad,533.000000000058,1,High,261.000000000058
165,4,0.25,UE,0,High,0,Happy,0,0,Happy,399,1,High,218
166,4,0.25,E,1,Low,0,Happy,40,0,Happy,1621,1,High,232
167,4,0.25,E,1,Low,0,Happy,20,0,Happy,383,1,High,231
168,4,0.25,UE,1,Low,1,Sad,100,1,Sad,471,1,High,261
169,5,0.75,E,0,High,0,Happy,20,0,Happy,757,1,High,229
170,5,0.75,UE,0,High,1,Sad,60,1,Sad,735,1,High,290.999999999942
171,5,0.75,E,0,High,0,Happy,0,0,Happy,620,1,High,216
172,5,0.75,E,0,High,0,Happy,40,1,Sad,1200,1,High,321.999999999942
173,5,0.75,E,1,Low,1,Sad,60,1,Sad,592,1,High,252.999999999942
174,5,0.75,E,1,Low,1,Sad,80,1,Sad,213,1,High,264.000000000058
175,5,0.75,E,1,Low,1,Sad,60,1,Sad,402,1,High,292
176,5,0.75,E,0,High,0,Happy,20,0,Happy,323.000000000058,1,High,212
177,5,0.75,E,1,Low,1,Sad,100,1,Sad,291,1,High,262
178,5,0.75,UE,1,Low,0,Happy,0,0,Happy,335,1,High,188
179,5,0.75,E,0,High,0,Happy,20,0,Happy,403.000000000058,1,High,231
180,5,0.75,UE,1,Low,0,Happy,40,0,Happy,441,1,High,213
181,5,0.75,E,1,Low,1,Sad,60,0,Happy,348.000000000058,0,Low,1098
182,5,0.75,E,0,High,0,Happy,40,0,Happy,662.000000000058,1,High,221
183,5,0.75,E,1,Low,1,Sad,80,1,Sad,303,1,High,235
184,5,0.75,E,1,Low,1,Sad,80,1,Sad,700.999999999942,1,High,206
185,5,0.75,UE,0,High,1,Sad,80,1,Sad,480.000000000058,1,High,209
186,5,0.75,UE,0,High,1,Sad,100,1,Sad,345.999999999942,1,High,264.999999999942
187,5,0.75,E,0,High,0,Happy,0,0,Happy,372.999999999942,1,High,227
188,5,0.75,E,1,Low,1,Sad,100,1,Sad,1058.99999999994,1,High,264
189,5,0.75,UE,1,Low,0,Happy,20,0,Happy,356.000000000058,1,High,223.000000000058
190,5,0.75,E,0,High,0,Happy,0,0,Happy,426.000000000058,1,High,186
191,5,0.75,E,1,Low,1,Sad,100,1,Sad,455.000000000058,1,High,265
192,5,0.75,E,0,High,0,Happy,40,0,Happy,626,1,High,397
