Trial_N,Block_N,Contingency,Expectedness,Cue_idx,Cue_name,Outcome_idx,Outcome_name,Outcome_p_sad,Response_idx,Response_name,Response_RT,Confidence_idx,Confidence_name,Confidence_RT
1,1,0.75,E,1,Low,1,Sad,80,1,Sad,1150.20000004768,1,High,433.800000071526
2,1,0.75,E,1,Low,1,Sad,100,1,Sad,410.399999976158,1,High,221.400000095367
3,1,0.75,E,1,Low,1,Sad,80,1,Sad,336.200000047684,1,High,237.599999904633
4,1,0.75,E,0,High,0,Happy,20,0,Happy,521.5,1,High,500.100000023842
5,1,0.75,E,0,High,0,Happy,0,0,Happy,326.5,1,High,194.799999952316
6,1,0.75,UE,0,High,1,Sad,100,1,Sad,439.600000023842,1,High,213.399999976158
7,1,0.75,E,1,Low,1,Sad,60,0,Happy,1156.10000002384,1,High,212
8,1,0.75,E,0,High,0,Happy,20,0,Happy,680.5,1,High,252.600000023842
9,1,0.75,UE,1,Low,0,Happy,20,0,Happy,464.200000047684,1,High,274.299999952316
10,1,0.75,E,1,Low,1,Sad,100,1,Sad,542.399999976158,1,High,192.599999904633
11,1,0.75,E,1,Low,1,Sad,60,1,Sad,410,1,High,203.5
12,1,0.75,E,0,High,0,Happy,40,0,Happy,463.299999952316,1,High,224.699999928474
13,1,0.75,E,1,Low,1,Sad,60,0,Happy,476.799999952316,1,High,230.700000047684
14,1,0.75,E,1,Low,1,Sad,60,0,Happy,414.600000023842,1,High,234.5
15,1,0.75,E,1,Low,1,Sad,60,0,Happy,408.599999904633,1,High,229.100000023842
16,1,0.75,UE,0,High,1,Sad,80,1,Sad,561.400000095367,1,High,211.900000095367
17,1,0.75,E,0,High,0,Happy,0,0,Happy,453.200000047684,1,High,257.899999976158
18,1,0.75,E,0,High,0,Happy,20,0,Happy,341.600000023842,1,High,246.199999928474
19,1,0.75,E,1,Low,1,Sad,80,1,Sad,454.299999952316,1,High,237.600000023842
20,1,0.75,E,0,High,0,Happy,0,0,Happy,324.899999976158,1,High,233.600000023842
21,1,0.75,UE,0,High,1,Sad,100,1,Sad,528.5,1,High,229.400000095367
22,1,0.75,E,0,High,0,Happy,20,0,Happy,501.399999976158,1,High,264.5
23,1,0.75,E,1,Low,1,Sad,60,1,Sad,535.600000023842,1,High,329
24,1,0.75,E,0,High,0,Happy,40,0,Happy,551.399999976158,1,High,268
25,1,0.75,UE,1,Low,0,Happy,0,0,Happy,416.600000023842,1,High,244.400000095367
26,1,0.75,E,1,Low,1,Sad,80,1,Sad,464.700000047684,1,High,212
27,1,0.75,E,0,High,0,Happy,0,0,Happy,411.300000071526,1,High,243.799999952316
28,1,0.75,E,0,High,0,Happy,0,0,Happy,292.5,1,High,220.200000047684
29,1,0.75,E,1,Low,1,Sad,60,0,Happy,983.300000071526,1,High,465.899999976158
30,1,0.75,E,1,Low,1,Sad,100,1,Sad,490.599999904633,1,High,183.399999976158
31,1,0.75,UE,1,Low,0,Happy,40,0,Happy,406.5,1,High,212.199999928474
32,1,0.75,UE,0,High,1,Sad,100,1,Sad,512.300000071526,1,High,227.200000047684
33,1,0.75,E,0,High,0,Happy,40,0,Happy,549.400000095367,1,High,221.399999976158
34,1,0.75,E,0,High,0,Happy,40,0,Happy,389.399999976158,1,High,242.600000023842
35,1,0.75,E,1,Low,1,Sad,80,1,Sad,326.5,1,High,278.600000023842
36,1,0.75,E,1,Low,1,Sad,60,1,Sad,1311.29999995232,0,Low,874.600000023842
37,1,0.75,E,0,High,0,Happy,40,0,Happy,514.5,1,High,223.399999976158
38,1,0.75,UE,0,High,1,Sad,80,1,Sad,500.399999976158,1,High,209.699999928474
39,1,0.75,E,1,Low,1,Sad,60,1,Sad,1402.5,1,High,258.299999952316
40,1,0.75,E,0,High,0,Happy,40,0,Happy,448.5,1,High,207.799999952316
41,1,0.75,UE,1,Low,0,Happy,20,0,Happy,371.199999928474,1,High,223
42,1,0.75,E,0,High,0,Happy,20,0,Happy,348.599999904633,1,High,191.899999976158
43,1,0.75,E,1,Low,1,Sad,100,1,Sad,472.200000047684,1,High,256.800000071526
44,1,0.75,UE,0,High,1,Sad,80,1,Sad,454.099999904633,1,High,236.399999976158
45,1,0.75,E,1,Low,1,Sad,100,1,Sad,370.100000023842,1,High,220
46,1,0.75,E,0,High,0,Happy,0,0,Happy,371.899999976158,1,High,203.900000095367
47,1,0.75,E,1,Low,1,Sad,80,1,Sad,415,1,High,206.100000023842
48,1,0.75,UE,1,Low,0,Happy,20,0,Happy,449.400000095367,1,High,220.899999976158
49,1,0.75,E,0,High,0,Happy,0,0,Happy,481.299999952316,1,High,225.5
50,1,0.75,E,1,Low,1,Sad,80,1,Sad,415.5,1,High,219.399999976158
51,1,0.75,E,0,High,0,Happy,20,0,Happy,445.099999904633,1,High,198.399999976158
52,1,0.75,UE,0,High,1,Sad,60,1,Sad,402.200000047684,1,High,202.100000023842
53,1,0.75,UE,1,Low,0,Happy,0,0,Happy,453.100000023842,1,High,227.200000047684
54,1,0.75,E,1,Low,1,Sad,100,1,Sad,382,1,High,205.800000071526
55,1,0.75,E,1,Low,1,Sad,100,1,Sad,252.799999952316,1,High,214.600000023842
56,1,0.75,E,0,High,0,Happy,0,0,Happy,403.899999976158,1,High,238.399999976158
57,1,0.75,E,1,Low,1,Sad,100,1,Sad,314,1,High,209.600000023842
58,1,0.75,UE,0,High,1,Sad,100,1,Sad,376.099999904633,1,High,189
59,1,0.75,E,1,Low,1,Sad,80,1,Sad,321.600000023842,1,High,184.299999952316
60,1,0.75,E,0,High,0,Happy,20,0,Happy,313.199999928474,1,High,258.300000071526
61,1,0.75,UE,1,Low,0,Happy,40,0,Happy,448.5,1,High,242.5
62,1,0.75,UE,1,Low,0,Happy,20,0,Happy,355.5,1,High,234.5
63,1,0.75,E,0,High,0,Happy,20,0,Happy,396.399999976158,1,High,302.299999952316
64,1,0.75,E,1,Low,1,Sad,60,0,Happy,1381.5,1,High,242.799999952316
65,1,0.75,E,0,High,0,Happy,40,0,Happy,454.299999952316,1,High,211.600000023842
66,1,0.75,E,1,Low,1,Sad,80,1,Sad,428.599999904633,1,High,191.199999928474
67,1,0.75,UE,1,Low,0,Happy,0,0,Happy,442.099999904633,1,High,194.799999952316
68,1,0.75,E,0,High,0,Happy,40,0,Happy,447.199999928474,1,High,210.399999976158
69,1,0.75,E,0,High,0,Happy,40,0,Happy,496.5,1,High,186.100000023842
70,1,0.75,E,0,High,0,Happy,0,0,Happy,428.5,1,High,214.299999952316
71,1,0.75,UE,1,Low,0,Happy,0,0,Happy,383.199999928474,1,High,227.600000023842
72,1,0.75,E,1,Low,1,Sad,60,1,Sad,453,1,High,190.100000023842
73,1,0.75,E,0,High,0,Happy,40,0,Happy,396.5,1,High,253.700000047684
74,1,0.75,E,1,Low,1,Sad,100,1,Sad,386.800000071526,1,High,208.399999976158
75,1,0.75,E,1,Low,1,Sad,100,1,Sad,315.599999904633,1,High,174.700000047684
76,1,0.75,E,0,High,0,Happy,20,0,Happy,367.799999952316,1,High,222.900000095367
77,1,0.75,UE,0,High,1,Sad,60,1,Sad,490.199999928474,1,High,203.700000047684
78,1,0.75,E,0,High,0,Happy,0,0,Happy,418.100000023842,1,High,203.200000047684
79,1,0.75,E,0,High,0,Happy,40,0,Happy,457.799999952316,1,High,213.200000047684
80,1,0.75,UE,0,High,1,Sad,60,1,Sad,904.199999928474,1,High,217.700000047684
81,1,0.75,E,0,High,0,Happy,40,0,Happy,382.599999904633,1,High,231.199999928474
82,1,0.75,UE,0,High,1,Sad,80,1,Sad,342.299999952316,1,High,195.299999952316
83,1,0.75,E,0,High,0,Happy,0,0,Happy,387.399999976158,1,High,213.099999904633
84,1,0.75,E,0,High,0,Happy,20,0,Happy,369.400000095367,1,High,194.600000023842
85,1,0.75,E,1,Low,1,Sad,100,1,Sad,286.100000023842,1,High,194.400000095367
86,1,0.75,E,1,Low,1,Sad,100,1,Sad,215.899999976158,1,High,192.799999952316
87,1,0.75,UE,1,Low,0,Happy,40,0,Happy,343.899999976158,1,High,225.200000047684
88,1,0.75,E,1,Low,1,Sad,80,1,Sad,350,1,High,195.300000071526
89,1,0.75,E,0,High,0,Happy,0,0,Happy,389,1,High,206.5
90,1,0.75,UE,0,High,1,Sad,60,1,Sad,578.799999952316,1,High,183.300000071526
91,1,0.75,E,1,Low,1,Sad,60,1,Sad,376.799999952316,1,High,184.800000071526
92,1,0.75,E,1,Low,1,Sad,80,1,Sad,288.099999904633,1,High,180.799999952316
93,1,0.75,E,0,High,0,Happy,20,0,Happy,231.899999976158,1,High,212.700000047684
94,1,0.75,E,0,High,0,Happy,20,0,Happy,403.899999976158,1,High,235
95,1,0.75,UE,1,Low,0,Happy,40,0,Happy,457.5,1,High,256.200000047684
96,1,0.75,E,1,Low,1,Sad,80,1,Sad,499.100000023842,1,High,174.600000023842
97,2,0.25,E,1,Low,0,Happy,0,0,Happy,443.600000023842,1,High,215.899999976158
98,2,0.25,UE,1,Low,1,Sad,80,1,Sad,320,1,High,188.200000047684
99,2,0.25,E,1,Low,0,Happy,40,0,Happy,798.899999976158,1,High,214.199999928474
100,2,0.25,E,1,Low,0,Happy,40,0,Happy,414.599999904633,1,High,241.299999952316
101,2,0.25,E,0,High,1,Sad,60,1,Sad,1086.79999995232,0,Low,452.600000023842
102,2,0.25,E,1,Low,0,Happy,20,0,Happy,1196.60000002384,1,High,235.899999976158
103,2,0.25,E,0,High,1,Sad,80,1,Sad,519.100000023842,1,High,163.900000095367
104,2,0.25,UE,1,Low,1,Sad,100,1,Sad,399.300000071526,1,High,192.200000047684
105,2,0.25,E,1,Low,0,Happy,20,0,Happy,458.200000047684,1,High,236.5
106,2,0.25,UE,1,Low,1,Sad,60,0,Happy,992.100000023842,1,High,608.399999976158
107,2,0.25,UE,0,High,0,Happy,20,0,Happy,502.100000023842,1,High,242.100000023842
108,2,0.25,E,0,High,1,Sad,100,1,Sad,371.300000071526,1,High,190.600000023842
109,2,0.25,E,1,Low,0,Happy,40,0,Happy,417.100000023842,1,High,236
110,2,0.25,E,0,High,1,Sad,80,1,Sad,832.799999952316,1,High,176.299999952316
111,2,0.25,E,0,High,1,Sad,60,0,Happy,767.800000071526,1,High,200.100000023842
112,2,0.25,E,1,Low,0,Happy,0,0,Happy,583.600000023842,1,High,191
113,2,0.25,UE,0,High,0,Happy,40,0,Happy,441.600000023842,1,High,208
114,2,0.25,E,0,High,1,Sad,80,1,Sad,477,1,High,159.700000047684
115,2,0.25,E,0,High,1,Sad,100,1,Sad,382.100000023842,1,High,188.200000047684
116,2,0.25,E,0,High,1,Sad,60,0,Happy,693.400000095367,1,High,226.299999952316
117,2,0.25,E,1,Low,0,Happy,0,0,Happy,521.199999928474,1,High,212.300000071526
118,2,0.25,E,1,Low,0,Happy,20,0,Happy,352.5,1,High,191.200000047684
119,2,0.25,UE,0,High,0,Happy,0,0,Happy,404.700000047684,1,High,229.5
120,2,0.25,E,0,High,1,Sad,100,1,Sad,244.199999928474,1,High,181
121,3,0.75,E,0,High,0,Happy,0,0,Happy,492.200000047684,1,High,224.600000023842
122,3,0.75,E,0,High,0,Happy,40,0,Happy,440.299999952316,1,High,239.199999928474
123,3,0.75,E,0,High,0,Happy,0,0,Happy,381.199999928474,1,High,233.799999952316
124,3,0.75,E,1,Low,1,Sad,80,1,Sad,274.799999952316,1,High,175.100000023842
125,3,0.75,E,1,Low,1,Sad,60,1,Sad,238.200000047684,1,High,173
126,3,0.75,UE,0,High,1,Sad,100,1,Sad,495.600000023842,1,High,190.899999976158
127,3,0.75,E,0,High,0,Happy,20,0,Happy,444.700000047684,1,High,280.899999976158
128,3,0.75,E,0,High,0,Happy,40,0,Happy,482.399999976158,1,High,213
129,3,0.75,UE,1,Low,0,Happy,20,0,Happy,510.299999952316,1,High,246.699999928474
130,3,0.75,E,1,Low,1,Sad,100,1,Sad,403.700000047684,1,High,197.600000023842
131,3,0.75,E,0,High,0,Happy,40,0,Happy,635.800000071526,1,High,257.899999976158
132,3,0.75,UE,1,Low,0,Happy,40,0,Happy,406.5,1,High,234.800000071526
133,3,0.75,UE,0,High,1,Sad,60,0,Happy,442.899999976158,1,High,212.100000023842
134,3,0.75,E,1,Low,1,Sad,80,1,Sad,368,1,High,184.600000023842
135,3,0.75,E,1,Low,1,Sad,60,0,Happy,1407.40000009537,0,Low,331.100000023842
136,3,0.75,E,1,Low,1,Sad,60,0,Happy,1893.80000007153,1,High,258.600000023842
137,3,0.75,E,1,Low,1,Sad,100,1,Sad,449.700000047684,1,High,185.699999928474
138,3,0.75,UE,0,High,1,Sad,80,1,Sad,646.900000095367,1,High,171.899999976158
139,3,0.75,E,0,High,0,Happy,20,0,Happy,464.899999976158,1,High,240.100000023842
140,3,0.75,E,1,Low,1,Sad,80,1,Sad,605.600000023842,1,High,206.300000071526
141,3,0.75,E,1,Low,1,Sad,100,1,Sad,398.899999976158,1,High,185.100000023842
142,3,0.75,E,0,High,0,Happy,0,0,Happy,457.600000023842,1,High,226.099999904633
143,3,0.75,UE,1,Low,0,Happy,0,0,Happy,439.599999904633,1,High,218.5
144,3,0.75,E,0,High,0,Happy,20,0,Happy,511.5,1,High,238.399999976158
145,4,0.25,E,1,Low,0,Happy,0,0,Happy,475.5,1,High,244.100000023842
146,4,0.25,E,1,Low,0,Happy,20,0,Happy,463.799999952316,1,High,259.899999976158
147,4,0.25,UE,1,Low,1,Sad,80,1,Sad,334.799999952316,1,High,169.300000071526
148,4,0.25,UE,0,High,0,Happy,40,0,Happy,526.100000023842,1,High,202.5
149,4,0.25,E,0,High,1,Sad,80,1,Sad,504.5,1,High,161.899999976158
150,4,0.25,E,0,High,1,Sad,60,1,Sad,567.700000047684,1,High,162.299999952316
151,4,0.25,E,1,Low,0,Happy,0,0,Happy,436.900000095367,1,High,192.700000047684
152,4,0.25,E,0,High,1,Sad,80,1,Sad,354,1,High,148.300000071526
153,4,0.25,E,1,Low,0,Happy,40,0,Happy,566.5,1,High,238.299999952316
154,4,0.25,E,0,High,1,Sad,100,1,Sad,523,1,High,161.300000071526
155,4,0.25,E,0,High,1,Sad,100,1,Sad,488.700000047684,1,High,171.599999904633
156,4,0.25,E,0,High,1,Sad,80,1,Sad,360.600000023842,1,High,164.200000047684
157,4,0.25,E,1,Low,0,Happy,20,0,Happy,479.199999928474,1,High,208.300000071526
158,4,0.25,UE,0,High,0,Happy,20,0,Happy,478.399999976158,1,High,259.800000071526
159,4,0.25,E,0,High,1,Sad,60,0,Happy,509.100000023842,1,High,257.100000023842
160,4,0.25,E,1,Low,0,Happy,40,0,Happy,525.699999928474,1,High,229.5
161,4,0.25,E,1,Low,0,Happy,0,0,Happy,409,1,High,242.699999928474
162,4,0.25,UE,1,Low,1,Sad,60,1,Sad,1353.90000009537,0,Low,1762.39999997616
163,4,0.25,E,0,High,1,Sad,100,1,Sad,528.5,1,High,150.800000071526
164,4,0.25,E,0,High,1,Sad,60,1,Sad,681.600000023842,1,High,179.600000023842
165,4,0.25,UE,0,High,0,Happy,0,0,Happy,597.100000023842,1,High,198.899999976158
166,4,0.25,E,1,Low,0,Happy,40,0,Happy,470.599999904633,1,High,198
167,4,0.25,E,1,Low,0,Happy,20,0,Happy,496.5,1,High,248.799999952316
168,4,0.25,UE,1,Low,1,Sad,100,1,Sad,407,1,High,179.399999976158
169,5,0.75,E,0,High,0,Happy,20,0,Happy,556.600000023842,1,High,232.700000047684
170,5,0.75,UE,0,High,1,Sad,60,0,Happy,928.200000047684,1,High,307.700000047684
171,5,0.75,E,0,High,0,Happy,0,0,Happy,524,1,High,225
172,5,0.75,E,0,High,0,Happy,40,0,Happy,603.799999952316,1,High,197.300000071526
173,5,0.75,E,1,Low,1,Sad,60,1,Sad,930.200000047684,0,Low,838
174,5,0.75,E,1,Low,1,Sad,80,1,Sad,508.5,1,High,172.299999952316
175,5,0.75,E,1,Low,1,Sad,60,0,Happy,909.800000071526,1,High,226.600000023842
176,5,0.75,E,0,High,0,Happy,20,0,Happy,382.5,1,High,212
177,5,0.75,E,1,Low,1,Sad,100,1,Sad,386.299999952316,1,High,184
178,5,0.75,UE,1,Low,0,Happy,0,0,Happy,462.100000023842,1,High,214.600000023842
179,5,0.75,E,0,High,0,Happy,20,0,Happy,413.100000023842,1,High,213.600000023842
180,5,0.75,UE,1,Low,0,Happy,40,0,Happy,590.600000023842,1,High,215.299999952316
181,5,0.75,E,1,Low,1,Sad,60,1,Sad,965.100000023842,0,Low,506.399999976158
182,5,0.75,E,0,High,0,Happy,40,0,Happy,924.899999976158,1,High,244.399999976158
183,5,0.75,E,1,Low,1,Sad,80,1,Sad,461.800000071526,1,High,195.5
184,5,0.75,E,1,Low,1,Sad,80,1,Sad,428.200000047684,1,High,193.200000047684
185,5,0.75,UE,0,High,1,Sad,80,1,Sad,290.599999904633,1,High,181.899999976158
186,5,0.75,UE,0,High,1,Sad,100,1,Sad,306.599999904633,1,High,201.600000023842
187,5,0.75,E,0,High,0,Happy,0,0,Happy,441.300000071526,1,High,238.700000047684
188,5,0.75,E,1,Low,1,Sad,100,1,Sad,361.899999976158,1,High,127.899999976158
189,5,0.75,UE,1,Low,0,Happy,20,0,Happy,388.5,1,High,202.399999976158
190,5,0.75,E,0,High,0,Happy,0,0,Happy,475.399999976158,1,High,209.5
191,5,0.75,E,1,Low,1,Sad,100,1,Sad,314.399999976158,1,High,204.599999904633
192,5,0.75,E,0,High,0,Happy,40,0,Happy,543.700000047684,1,High,207.799999952316
