Trial_N,Block_N,Contingency,Expectedness,Cue_idx,Cue_name,Outcome_idx,Outcome_name,Outcome_p_sad,Response_idx,Response_name,Response_RT,Confidence_idx,Confidence_name,Confidence_RT
1,1,0.75,E,1,Low,1,Sad,80,1,Sad,674.299999999814,0,Low,748.299999999814
2,1,0.75,E,1,Low,1,Sad,100,1,Sad,488.600000000559,0,Low,310.200000000186
3,1,0.75,E,1,Low,1,Sad,80,1,Sad,278.700000000186,0,Low,293.099999999627
4,1,0.75,E,0,High,0,Happy,20,0,Happy,478,0,Low,290.700000000186
5,1,0.75,E,0,High,0,Happy,0,0,Happy,463.100000000559,0,Low,344.600000000559
6,1,0.75,UE,0,High,1,Sad,100,1,Sad,450.100000000559,0,Low,248.299999999814
7,1,0.75,E,1,Low,1,Sad,60,0,Happy,724.5,0,Low,277.5
8,1,0.75,E,0,High,0,Happy,20,0,Happy,398.299999999814,0,Low,273.900000000373
9,1,0.75,UE,1,Low,0,Happy,20,0,Happy,500.299999999814,0,Low,272.400000000373
10,1,0.75,E,1,Low,1,Sad,100,1,Sad,460.799999999814,0,Low,316.399999999441
11,1,0.75,E,1,Low,1,Sad,60,1,Sad,1482.09999999963,0,Low,406.799999999814
12,1,0.75,E,0,High,0,Happy,40,0,Happy,379.5,0,Low,515.5
13,1,0.75,E,1,Low,1,Sad,60,0,Happy,679.599999999627,0,Low,491.400000000373
14,1,0.75,E,1,Low,1,Sad,60,1,Sad,449,0,Low,288.900000000373
15,1,0.75,E,1,Low,1,Sad,60,1,Sad,511.600000000559,0,Low,270.5
16,1,0.75,UE,0,High,1,Sad,80,1,Sad,429.100000000559,0,Low,264.400000000373
17,1,0.75,E,0,High,0,Happy,0,0,Happy,471.799999999814,0,Low,289.899999999441
18,1,0.75,E,0,High,0,Happy,20,0,Happy,343.299999999814,0,Low,274.799999999814
19,1,0.75,E,1,Low,1,Sad,80,1,Sad,301.600000000559,0,Low,271.100000000559
20,1,0.75,E,0,High,0,Happy,0,0,Happy,607.899999999441,0,Low,272
21,1,0.75,UE,0,High,1,Sad,100,1,Sad,528.899999999441,0,Low,271.599999999627
22,1,0.75,E,0,High,0,Happy,20,0,Happy,413.5,0,Low,284.5
23,1,0.75,E,1,Low,1,Sad,60,1,Sad,414,0,Low,277.200000000186
24,1,0.75,E,0,High,0,Happy,40,0,Happy,403.600000000559,0,Low,327.700000000186
25,1,0.75,UE,1,Low,0,Happy,0,0,Happy,529.100000000559,0,Low,326.100000000559
26,1,0.75,E,1,Low,1,Sad,80,1,Sad,416,0,Low,268.5
27,1,0.75,E,0,High,0,Happy,0,0,Happy,455.399999999441,0,Low,284.299999999814
28,1,0.75,E,0,High,0,Happy,0,0,Happy,504.800000000745,0,Low,265.399999999441
29,1,0.75,E,1,Low,1,Sad,60,1,Sad,429.700000000186,0,Low,260.099999999627
30,1,0.75,E,1,Low,1,Sad,100,1,Sad,256.600000000559,0,Low,259.400000000373
31,1,0.75,UE,1,Low,0,Happy,40,0,Happy,513.799999999814,0,Low,265.100000000559
32,1,0.75,UE,0,High,1,Sad,100,1,Sad,425.100000000559,0,Low,257.099999999627
33,1,0.75,E,0,High,0,Happy,40,0,Happy,479.099999999627,0,Low,249.900000000373
34,1,0.75,E,0,High,0,Happy,40,0,Happy,476.200000000186,0,Low,302.899999999441
35,1,0.75,E,1,Low,1,Sad,80,1,Sad,324.199999999255,0,Low,269.599999999627
36,1,0.75,E,1,Low,1,Sad,60,1,Sad,291.700000000186,0,Low,277.599999999627
37,1,0.75,E,0,High,0,Happy,40,0,Happy,428.099999999627,0,Low,280.5
38,1,0.75,UE,0,High,1,Sad,80,1,Sad,313.400000000373,0,Low,268.299999999814
39,1,0.75,E,1,Low,1,Sad,60,1,Sad,339.800000000745,0,Low,282.100000000559
40,1,0.75,E,0,High,0,Happy,40,0,Happy,555.599999999627,0,Low,251.800000000745
41,1,0.75,UE,1,Low,0,Happy,20,0,Happy,342.600000000559,0,Low,250.600000000559
42,1,0.75,E,0,High,0,Happy,20,0,Happy,438.700000000186,0,Low,221.5
43,1,0.75,E,1,Low,1,Sad,100,1,Sad,476.100000000559,0,Low,251.800000000745
44,1,0.75,UE,0,High,1,Sad,80,1,Sad,302.900000000373,0,Low,247.099999999627
45,1,0.75,E,1,Low,1,Sad,100,1,Sad,336,0,Low,249.100000000559
46,1,0.75,E,0,High,0,Happy,0,0,Happy,443.899999999441,0,Low,255.099999999627
47,1,0.75,E,1,Low,1,Sad,80,1,Sad,263.399999999441,0,Low,255.299999999814
48,1,0.75,UE,1,Low,0,Happy,20,0,Happy,480.299999999814,0,Low,306.5
49,1,0.75,E,0,High,0,Happy,0,0,Happy,532.199999999255,0,Low,262.5
50,1,0.75,E,1,Low,1,Sad,80,1,Sad,396.400000000373,0,Low,274.5
51,1,0.75,E,0,High,0,Happy,20,0,Happy,594,0,Low,290.5
52,1,0.75,UE,0,High,1,Sad,60,1,Sad,640.099999999627,0,Low,245.200000000186
53,1,0.75,UE,1,Low,0,Happy,0,0,Happy,407.600000000559,0,Low,265.5
54,1,0.75,E,1,Low,1,Sad,100,1,Sad,703.099999999627,0,Low,221
55,1,0.75,E,1,Low,1,Sad,100,1,Sad,274.799999999814,0,Low,230.300000000745
56,1,0.75,E,0,High,0,Happy,0,0,Happy,462.099999999627,0,Low,261.200000000186
57,1,0.75,E,1,Low,1,Sad,100,1,Sad,408.799999999814,0,Low,265
58,1,0.75,UE,0,High,1,Sad,100,1,Sad,293,0,Low,229.899999999441
59,1,0.75,E,1,Low,1,Sad,80,1,Sad,397.199999999255,0,Low,246.900000000373
60,1,0.75,E,0,High,0,Happy,20,0,Happy,495.200000000186,0,Low,270.200000000186
61,1,0.75,UE,1,Low,0,Happy,40,1,Sad,1046.40000000037,0,Low,287.299999999814
62,1,0.75,UE,1,Low,0,Happy,20,0,Happy,484.799999999814,0,Low,246.899999999441
63,1,0.75,E,0,High,0,Happy,20,0,Happy,863.799999999814,0,Low,245.799999999814
64,1,0.75,E,1,Low,1,Sad,60,1,Sad,1132.20000000019,0,Low,337.599999999627
65,1,0.75,E,0,High,0,Happy,40,0,Happy,456.100000000559,0,Low,283.299999999814
66,1,0.75,E,1,Low,1,Sad,80,1,Sad,499.5,0,Low,264
67,1,0.75,UE,1,Low,0,Happy,0,0,Happy,532.299999999814,0,Low,292.899999999441
68,1,0.75,E,0,High,0,Happy,40,1,Sad,510.5,0,Low,300.5
69,1,0.75,E,0,High,0,Happy,40,1,Sad,403.599999999627,0,Low,287.299999999814
70,1,0.75,E,0,High,0,Happy,0,0,Happy,468,0,Low,274.799999999814
71,1,0.75,UE,1,Low,0,Happy,0,0,Happy,521.099999999627,0,Low,274.799999999814
72,1,0.75,E,1,Low,1,Sad,60,1,Sad,552.700000000186,0,Low,304.200000000186
73,1,0.75,E,0,High,0,Happy,40,0,Happy,434.900000000373,0,Low,286.299999999814
74,1,0.75,E,1,Low,1,Sad,100,1,Sad,500.600000000559,0,Low,298.299999999814
75,1,0.75,E,1,Low,1,Sad,100,1,Sad,489.299999999814,0,Low,282.600000000559
76,1,0.75,E,0,High,0,Happy,20,0,Happy,441.900000000373,0,Low,296.400000000373
77,1,0.75,UE,0,High,1,Sad,60,0,Happy,679.100000000559,0,Low,230.5
78,1,0.75,E,0,High,0,Happy,0,1,Sad,392.199999999255,0,Low,453.800000000745
79,1,0.75,E,0,High,0,Happy,40,1,Sad,417,0,Low,338
80,1,0.75,UE,0,High,1,Sad,60,1,Sad,631,0,Low,264.100000000559
81,1,0.75,E,0,High,0,Happy,40,0,Happy,487.100000000559,0,Low,304
82,1,0.75,UE,0,High,1,Sad,80,1,Sad,626.399999999441,0,Low,271.299999999814
83,1,0.75,E,0,High,0,Happy,0,0,Happy,396.5,0,Low,296
84,1,0.75,E,0,High,0,Happy,20,0,Happy,358.299999999814,0,Low,308.399999999441
85,1,0.75,E,1,Low,1,Sad,100,1,Sad,445.299999999814,0,Low,234.900000000373
86,1,0.75,E,1,Low,1,Sad,100,1,Sad,372.399999999441,0,Low,231.5
87,1,0.75,UE,1,Low,0,Happy,40,1,Sad,196.5,0,Low,281.900000000373
88,1,0.75,E,1,Low,1,Sad,80,1,Sad,443,0,Low,223.200000000186
89,1,0.75,E,0,High,0,Happy,0,0,Happy,250,0,Low,331.600000000559
90,1,0.75,UE,0,High,1,Sad,60,0,Happy,636.399999999441,0,Low,297.5
91,1,0.75,E,1,Low,1,Sad,60,0,Happy,500,0,Low,263.899999999441
92,1,0.75,E,1,Low,1,Sad,80,1,Sad,356,0,Low,280.700000000186
93,1,0.75,E,0,High,0,Happy,20,0,Happy,367.299999999814,0,Low,257.200000000186
94,1,0.75,E,0,High,0,Happy,20,0,Happy,559.5,0,Low,262.799999999814
95,1,0.75,UE,1,Low,0,Happy,40,0,Happy,410.700000000186,0,Low,466.199999999255
96,1,0.75,E,1,Low,1,Sad,80,1,Sad,339.5,0,Low,240.599999999627
97,2,0.25,E,1,Low,0,Happy,0,0,Happy,567,0,Low,261.399999999441
98,2,0.25,UE,1,Low,1,Sad,80,1,Sad,490,0,Low,255.5
99,2,0.25,E,1,Low,0,Happy,40,0,Happy,575.100000000559,0,Low,282.099999999627
100,2,0.25,E,1,Low,0,Happy,40,0,Happy,457.800000000745,0,Low,266.5
101,2,0.25,E,0,High,1,Sad,60,1,Sad,403.5,0,Low,262.899999999441
102,2,0.25,E,1,Low,0,Happy,20,0,Happy,467.100000000559,0,Low,306.700000000186
103,2,0.25,E,0,High,1,Sad,80,1,Sad,495.400000000373,0,Low,274.600000000559
104,2,0.25,UE,1,Low,1,Sad,100,1,Sad,447.100000000559,0,Low,270
105,2,0.25,E,1,Low,0,Happy,20,0,Happy,267.200000000186,0,Low,253.599999999627
106,2,0.25,UE,1,Low,1,Sad,60,1,Sad,450.799999999814,0,Low,250.799999999814
107,2,0.25,UE,0,High,0,Happy,20,0,Happy,282.299999999814,0,Low,317.099999999627
108,2,0.25,E,0,High,1,Sad,100,1,Sad,403.599999999627,0,Low,253.799999999814
109,2,0.25,E,1,Low,0,Happy,40,0,Happy,502.600000000559,0,Low,263.299999999814
110,2,0.25,E,0,High,1,Sad,80,1,Sad,592.599999999627,0,Low,315.700000000186
111,2,0.25,E,0,High,1,Sad,60,1,Sad,832.799999999814,0,Low,270.799999999814
112,2,0.25,E,1,Low,0,Happy,0,0,Happy,445.5,0,Low,296.799999999814
113,2,0.25,UE,0,High,0,Happy,40,0,Happy,888.200000000186,0,Low,265.700000000186
114,2,0.25,E,0,High,1,Sad,80,1,Sad,578.100000000559,0,Low,279.399999999441
115,2,0.25,E,0,High,1,Sad,100,1,Sad,546,0,Low,235.200000000186
116,2,0.25,E,0,High,1,Sad,60,0,Happy,575.299999999814,0,Low,301.299999999814
117,2,0.25,E,1,Low,0,Happy,0,0,Happy,591.599999999627,0,Low,330.299999999814
118,2,0.25,E,1,Low,0,Happy,20,0,Happy,508.5,0,Low,312.199999999255
119,2,0.25,UE,0,High,0,Happy,0,0,Happy,437.700000000186,0,Low,317.299999999814
120,2,0.25,E,0,High,1,Sad,100,1,Sad,399.099999999627,0,Low,294.099999999627
121,3,0.75,E,0,High,0,Happy,0,0,Happy,367.099999999627,0,Low,402.799999999814
122,3,0.75,E,0,High,0,Happy,40,0,Happy,379,0,Low,334.299999999814
123,3,0.75,E,0,High,0,Happy,0,0,Happy,334,0,Low,367.400000000373
124,3,0.75,E,1,Low,1,Sad,80,1,Sad,397.599999999627,0,Low,341.5
125,3,0.75,E,1,Low,1,Sad,60,1,Sad,378,0,Low,297
126,3,0.75,UE,0,High,1,Sad,100,1,Sad,561.900000000373,0,Low,372.099999999627
127,3,0.75,E,0,High,0,Happy,20,0,Happy,395.100000000559,0,Low,307.600000000559
128,3,0.75,E,0,High,0,Happy,40,0,Happy,390.600000000559,0,Low,329.100000000559
129,3,0.75,UE,1,Low,0,Happy,20,0,Happy,492.5,0,Low,360
130,3,0.75,E,1,Low,1,Sad,100,1,Sad,426.700000000186,0,Low,380.600000000559
131,3,0.75,E,0,High,0,Happy,40,0,Happy,694.799999999814,0,Low,346.700000000186
132,3,0.75,UE,1,Low,0,Happy,40,0,Happy,599.200000000186,0,Low,288
133,3,0.75,UE,0,High,1,Sad,60,1,Sad,477.600000000559,0,Low,358.5
134,3,0.75,E,1,Low,1,Sad,80,1,Sad,487,0,Low,286.5
135,3,0.75,E,1,Low,1,Sad,60,1,Sad,841.5,0,Low,280.200000000186
136,3,0.75,E,1,Low,1,Sad,60,1,Sad,537.200000000186,0,Low,279.600000000559
137,3,0.75,E,1,Low,1,Sad,100,1,Sad,389,0,Low,305.299999999814
138,3,0.75,UE,0,High,1,Sad,80,1,Sad,422.299999999814,0,Low,377.799999999814
139,3,0.75,E,0,High,0,Happy,20,0,Happy,409.399999999441,0,Low,319.900000000373
140,3,0.75,E,1,Low,1,Sad,80,1,Sad,450.799999999814,0,Low,303.700000000186
141,3,0.75,E,1,Low,1,Sad,100,1,Sad,412.399999999441,0,Low,289.700000000186
142,3,0.75,E,0,High,0,Happy,0,0,Happy,465.200000000186,0,Low,336
143,3,0.75,UE,1,Low,0,Happy,0,0,Happy,372.299999999814,0,Low,316.299999999814
144,3,0.75,E,0,High,0,Happy,20,0,Happy,325.200000000186,0,Low,305.099999999627
145,4,0.25,E,1,Low,0,Happy,0,0,Happy,296.5,0,Low,302.299999999814
146,4,0.25,E,1,Low,0,Happy,20,0,Happy,362.700000000186,0,Low,293.299999999814
147,4,0.25,UE,1,Low,1,Sad,80,1,Sad,495.799999999814,0,Low,281
148,4,0.25,UE,0,High,0,Happy,40,0,Happy,422,0,Low,294.599999999627
149,4,0.25,E,0,High,1,Sad,80,1,Sad,493.900000000373,0,Low,305.699999999255
150,4,0.25,E,0,High,1,Sad,60,1,Sad,522.200000000186,0,Low,284.100000000559
151,4,0.25,E,1,Low,0,Happy,0,0,Happy,363.799999999814,0,Low,324.399999999441
152,4,0.25,E,0,High,1,Sad,80,1,Sad,395.099999999627,0,Low,352.899999999441
153,4,0.25,E,1,Low,0,Happy,40,0,Happy,657.200000000186,0,Low,319
154,4,0.25,E,0,High,1,Sad,100,1,Sad,442.200000000186,0,Low,338.299999999814
155,4,0.25,E,0,High,1,Sad,100,1,Sad,467,0,Low,304.199999999255
156,4,0.25,E,0,High,1,Sad,80,1,Sad,534.200000000186,0,Low,317
157,4,0.25,E,1,Low,0,Happy,20,0,Happy,498.799999999814,0,Low,329
158,4,0.25,UE,0,High,0,Happy,20,0,Happy,1018.09999999963,0,Low,301
159,4,0.25,E,0,High,1,Sad,60,1,Sad,470.099999999627,0,Low,285.399999999441
160,4,0.25,E,1,Low,0,Happy,40,0,Happy,383.400000000373,0,Low,255.399999999441
161,4,0.25,E,1,Low,0,Happy,0,0,Happy,393.299999999814,0,Low,249.700000000186
162,4,0.25,UE,1,Low,1,Sad,60,1,Sad,629.700000000186,0,Low,390.5
163,4,0.25,E,0,High,1,Sad,100,1,Sad,403.400000000373,0,Low,279.299999999814
164,4,0.25,E,0,High,1,Sad,60,1,Sad,451.5,0,Low,280.200000000186
165,4,0.25,UE,0,High,0,Happy,0,0,Happy,448.099999999627,0,Low,290.400000000373
166,4,0.25,E,1,Low,0,Happy,40,0,Happy,471.099999999627,0,Low,271.400000000373
167,4,0.25,E,1,Low,0,Happy,20,0,Happy,378.400000000373,0,Low,256.700000000186
168,4,0.25,UE,1,Low,1,Sad,100,1,Sad,472.599999999627,0,Low,291.5
169,5,0.75,E,0,High,0,Happy,20,0,Happy,516.200000000186,0,Low,273.200000000186
170,5,0.75,UE,0,High,1,Sad,60,1,Sad,596.100000000559,0,Low,263.699999999255
171,5,0.75,E,0,High,0,Happy,0,0,Happy,465.5,0,Low,290.299999999814
172,5,0.75,E,0,High,0,Happy,40,0,Happy,546.5,0,Low,267.5
173,5,0.75,E,1,Low,1,Sad,60,0,Happy,1019.29999999981,0,Low,217.899999999441
174,5,0.75,E,1,Low,1,Sad,80,1,Sad,361.100000000559,0,Low,263.700000000186
175,5,0.75,E,1,Low,1,Sad,60,0,Happy,482,0,Low,235.200000000186
176,5,0.75,E,0,High,0,Happy,20,0,Happy,380.299999999814,0,Low,264.099999999627
177,5,0.75,E,1,Low,1,Sad,100,1,Sad,495.299999999814,0,Low,241.600000000559
178,5,0.75,UE,1,Low,0,Happy,0,0,Happy,402.199999999255,0,Low,250.5
179,5,0.75,E,0,High,0,Happy,20,0,Happy,489.400000000373,0,Low,231.100000000559
180,5,0.75,UE,1,Low,0,Happy,40,0,Happy,321.5,0,Low,264
181,5,0.75,E,1,Low,1,Sad,60,1,Sad,1444.09999999963,0,Low,356.900000000373
182,5,0.75,E,0,High,0,Happy,40,0,Happy,409.700000000186,0,Low,229.199999999255
183,5,0.75,E,1,Low,1,Sad,80,1,Sad,689.200000000186,0,Low,246.300000000745
184,5,0.75,E,1,Low,1,Sad,80,1,Sad,580.799999999814,0,Low,271
185,5,0.75,UE,0,High,1,Sad,80,1,Sad,411.799999999814,0,Low,273.900000000373
186,5,0.75,UE,0,High,1,Sad,100,1,Sad,444.600000000559,0,Low,275
187,5,0.75,E,0,High,0,Happy,0,0,Happy,525.799999999814,0,Low,248.599999999627
188,5,0.75,E,1,Low,1,Sad,100,1,Sad,528.200000000186,0,Low,227.899999999441
189,5,0.75,UE,1,Low,0,Happy,20,0,Happy,595.900000000373,0,Low,487
190,5,0.75,E,0,High,0,Happy,0,0,Happy,400.299999999814,0,Low,248
191,5,0.75,E,1,Low,1,Sad,100,1,Sad,473.200000000186,0,Low,269.900000000373
192,5,0.75,E,0,High,0,Happy,40,1,Sad,634.099999999627,0,Low,321.100000000559
