Trial_N,Block_N,Contingency,Expectedness,Cue_idx,Cue_name,Outcome_idx,Outcome_name,Outcome_p_sad,Response_idx,Response_name,Response_RT,Confidence_idx,Confidence_name,Confidence_RT
1,1,0.75,E,1,Low,1,Sad,80,NaN,,3996.6,NaN,,NaN
2,1,0.75,E,1,Low,1,Sad,100,NaN,,3996.7,NaN,,NaN
3,1,0.75,E,1,Low,1,Sad,80,NaN,,3996.7,NaN,,NaN
4,1,0.75,E,0,High,0,Happy,20,NaN,,3996.7,NaN,,NaN
5,1,0.75,E,0,High,0,Happy,0,NaN,,3996.7,NaN,,NaN
6,1,0.75,UE,0,High,1,Sad,100,NaN,,3996.7,NaN,,NaN
7,1,0.75,E,1,Low,1,Sad,60,NaN,,3996.7,NaN,,NaN
8,1,0.75,E,0,High,0,Happy,20,1,Sad,885.899999999907,0,Low,3071.5
9,1,0.75,UE,1,Low,0,Happy,20,0,Happy,387.40000000014,0,Low,1385.90000000014
10,1,0.75,E,1,Low,1,Sad,100,1,Sad,547.300000000047,0,Low,1148.89999999991
11,1,0.75,E,1,Low,1,Sad,60,0,Happy,775.40000000014,1,High,742.300000000047
12,1,0.75,E,0,High,0,Happy,40,0,Happy,569.59999999986,1,High,813.899999999907
13,1,0.75,E,1,Low,1,Sad,60,1,Sad,917.600000000093,0,Low,849.600000000093
14,1,0.75,E,1,Low,1,Sad,60,1,Sad,642.40000000014,1,High,1019.80000000005
15,1,0.75,E,1,Low,1,Sad,60,0,Happy,424,0,Low,1136.59999999986
16,1,0.75,UE,0,High,1,Sad,80,1,Sad,846.399999999907,0,Low,803.199999999953
17,1,0.75,E,0,High,0,Happy,0,0,Happy,420.800000000047,1,High,614.90000000014
18,1,0.75,E,0,High,0,Happy,20,0,Happy,551.5,1,High,544.5
19,1,0.75,E,1,Low,1,Sad,80,1,Sad,932.5,1,High,949.699999999953
20,1,0.75,E,0,High,0,Happy,0,0,Happy,279.59999999986,1,High,599
21,1,0.75,UE,0,High,1,Sad,100,1,Sad,615.300000000047,0,Low,819.40000000014
22,1,0.75,E,0,High,0,Happy,20,0,Happy,368,1,High,881.09999999986
23,1,0.75,E,1,Low,1,Sad,60,1,Sad,841.5,0,Low,602.199999999953
24,1,0.75,E,0,High,0,Happy,40,0,Happy,2122.30000000005,1,High,776.5
25,1,0.75,UE,1,Low,0,Happy,0,0,Happy,577.799999999814,1,High,649.800000000047
26,1,0.75,E,1,Low,1,Sad,80,1,Sad,1389.89999999991,0,Low,2250.40000000014
27,1,0.75,E,0,High,0,Happy,0,0,Happy,715.40000000014,0,Low,952.199999999953
28,1,0.75,E,0,High,0,Happy,0,0,Happy,593.200000000186,1,High,556.59999999986
29,1,0.75,E,1,Low,1,Sad,60,1,Sad,757.5,0,Low,623.5
30,1,0.75,E,1,Low,1,Sad,100,1,Sad,825.699999999953,0,Low,671.600000000093
31,1,0.75,UE,1,Low,0,Happy,40,0,Happy,488.699999999953,0,Low,846.699999999953
32,1,0.75,UE,0,High,1,Sad,100,1,Sad,541.5,0,Low,579.300000000047
33,1,0.75,E,0,High,0,Happy,40,0,Happy,634.5,1,High,603.600000000093
34,1,0.75,E,0,High,0,Happy,40,0,Happy,543.699999999953,1,High,738.699999999953
35,1,0.75,E,1,Low,1,Sad,80,1,Sad,893.59999999986,0,Low,630.600000000093
36,1,0.75,E,1,Low,1,Sad,60,1,Sad,661.5,0,Low,596.699999999953
37,1,0.75,E,0,High,0,Happy,40,0,Happy,580.800000000047,0,Low,622.40000000014
38,1,0.75,UE,0,High,1,Sad,80,1,Sad,494.100000000093,0,Low,525
39,1,0.75,E,1,Low,1,Sad,60,1,Sad,917.700000000186,0,Low,799.40000000014
40,1,0.75,E,0,High,0,Happy,40,0,Happy,468.399999999907,1,High,479.59999999986
41,1,0.75,UE,1,Low,0,Happy,20,0,Happy,634.600000000093,1,High,523.100000000093
42,1,0.75,E,0,High,0,Happy,20,0,Happy,1870.70000000019,1,High,549.600000000093
43,1,0.75,E,1,Low,1,Sad,100,1,Sad,444.199999999953,1,High,651.300000000047
44,1,0.75,UE,0,High,1,Sad,80,1,Sad,763.199999999953,0,Low,491.100000000093
45,1,0.75,E,1,Low,1,Sad,100,1,Sad,730.899999999907,0,Low,503
46,1,0.75,E,0,High,0,Happy,0,0,Happy,1732,1,High,436.100000000093
47,1,0.75,E,1,Low,1,Sad,80,1,Sad,692.199999999953,0,Low,486.899999999907
48,1,0.75,UE,1,Low,0,Happy,20,0,Happy,490.90000000014,1,High,529.899999999907
49,1,0.75,E,0,High,0,Happy,0,0,Happy,501.59999999986,1,High,567.700000000186
50,1,0.75,E,1,Low,1,Sad,80,1,Sad,735.199999999953,0,Low,865.100000000093
51,1,0.75,E,0,High,0,Happy,20,0,Happy,1570.40000000014,1,High,470.199999999953
52,1,0.75,UE,0,High,1,Sad,60,1,Sad,862.5,0,Low,473.59999999986
53,1,0.75,UE,1,Low,0,Happy,0,0,Happy,424.09999999986,1,High,514.5
54,1,0.75,E,1,Low,1,Sad,100,1,Sad,1536.59999999986,0,Low,456.300000000047
55,1,0.75,E,1,Low,1,Sad,100,1,Sad,906.199999999953,0,Low,507.300000000047
56,1,0.75,E,0,High,0,Happy,0,0,Happy,506.899999999907,1,High,524.300000000047
57,1,0.75,E,1,Low,1,Sad,100,1,Sad,922.399999999907,0,Low,478.899999999907
58,1,0.75,UE,0,High,1,Sad,100,1,Sad,901.800000000047,0,Low,530.5
59,1,0.75,E,1,Low,1,Sad,80,1,Sad,719.100000000093,0,Low,456.799999999814
60,1,0.75,E,0,High,0,Happy,20,0,Happy,1140.19999999995,0,Low,597.59999999986
61,1,0.75,UE,1,Low,0,Happy,40,0,Happy,834.40000000014,0,Low,552.800000000047
62,1,0.75,UE,1,Low,0,Happy,20,0,Happy,1129.39999999991,1,High,1319.80000000005
63,1,0.75,E,0,High,0,Happy,20,0,Happy,637.199999999953,1,High,844.199999999953
64,1,0.75,E,1,Low,1,Sad,60,1,Sad,625.899999999907,0,Low,1147.5
65,1,0.75,E,0,High,0,Happy,40,0,Happy,1292.89999999991,0,Low,492.899999999907
66,1,0.75,E,1,Low,1,Sad,80,1,Sad,1232.90000000014,0,Low,479.199999999953
67,1,0.75,UE,1,Low,0,Happy,0,0,Happy,1664.69999999995,0,Low,545.699999999953
68,1,0.75,E,0,High,0,Happy,40,0,Happy,752.800000000047,0,Low,552.699999999953
69,1,0.75,E,0,High,0,Happy,40,0,Happy,535.100000000093,0,Low,532.5
70,1,0.75,E,0,High,0,Happy,0,0,Happy,483.199999999953,1,High,493.90000000014
71,1,0.75,UE,1,Low,0,Happy,0,0,Happy,536.90000000014,1,High,507
72,1,0.75,E,1,Low,1,Sad,60,0,Happy,927.699999999953,0,Low,520.09999999986
73,1,0.75,E,0,High,0,Happy,40,0,Happy,647.700000000186,0,Low,532.300000000047
74,1,0.75,E,1,Low,1,Sad,100,1,Sad,1059.10000000009,0,Low,455.200000000186
75,1,0.75,E,1,Low,1,Sad,100,1,Sad,717.600000000093,0,Low,463.199999999953
76,1,0.75,E,0,High,0,Happy,20,0,Happy,427.199999999953,0,Low,581.5
77,1,0.75,UE,0,High,1,Sad,60,1,Sad,841.300000000047,0,Low,427.59999999986
78,1,0.75,E,0,High,0,Happy,0,0,Happy,439.800000000047,1,High,472.100000000093
79,1,0.75,E,0,High,0,Happy,40,0,Happy,766.399999999907,0,Low,663.5
80,1,0.75,UE,0,High,1,Sad,60,1,Sad,832.600000000093,0,Low,474.800000000047
81,1,0.75,E,0,High,0,Happy,40,0,Happy,347.899999999907,1,High,514.399999999907
82,1,0.75,UE,0,High,1,Sad,80,1,Sad,798.300000000047,0,Low,438.59999999986
83,1,0.75,E,0,High,0,Happy,0,0,Happy,416.100000000093,1,High,502.100000000093
84,1,0.75,E,0,High,0,Happy,20,0,Happy,492,1,High,506.899999999907
85,1,0.75,E,1,Low,1,Sad,100,1,Sad,717.200000000186,1,High,593.100000000093
86,1,0.75,E,1,Low,1,Sad,100,1,Sad,592.899999999907,1,High,455.100000000093
87,1,0.75,UE,1,Low,0,Happy,40,0,Happy,1147,0,Low,444.5
88,1,0.75,E,1,Low,1,Sad,80,1,Sad,1135.69999999995,0,Low,462.5
89,1,0.75,E,0,High,0,Happy,0,0,Happy,520.40000000014,1,High,560.399999999907
90,1,0.75,UE,0,High,1,Sad,60,1,Sad,830.40000000014,0,Low,373.699999999953
91,1,0.75,E,1,Low,1,Sad,60,0,Happy,1076.60000000009,0,Low,519.800000000047
92,1,0.75,E,1,Low,1,Sad,80,1,Sad,751.100000000093,0,Low,417.800000000047
93,1,0.75,E,0,High,0,Happy,20,0,Happy,385.300000000047,1,High,447.09999999986
94,1,0.75,E,0,High,0,Happy,20,0,Happy,430.09999999986,1,High,431.600000000093
95,1,0.75,UE,1,Low,0,Happy,40,0,Happy,929.199999999953,0,Low,505.800000000047
96,1,0.75,E,1,Low,1,Sad,80,1,Sad,743.899999999907,0,Low,407.5
97,2,0.25,E,1,Low,0,Happy,0,0,Happy,575.40000000014,1,High,503.5
98,2,0.25,UE,1,Low,1,Sad,80,1,Sad,802.899999999907,0,Low,403.09999999986
99,2,0.25,E,1,Low,0,Happy,40,0,Happy,1413.89999999991,0,Low,457
100,2,0.25,E,1,Low,0,Happy,40,0,Happy,1129.80000000005,0,Low,850.5
101,2,0.25,E,0,High,1,Sad,60,1,Sad,952.5,0,Low,384.100000000093
102,2,0.25,E,1,Low,0,Happy,20,0,Happy,481.600000000093,1,High,455
103,2,0.25,E,0,High,1,Sad,80,1,Sad,707.899999999907,1,High,1034
104,2,0.25,UE,1,Low,1,Sad,100,1,Sad,1098.89999999991,1,High,476.09999999986
105,2,0.25,E,1,Low,0,Happy,20,0,Happy,758.300000000047,1,High,562.699999999953
106,2,0.25,UE,1,Low,1,Sad,60,1,Sad,669.300000000047,0,Low,455.200000000186
107,2,0.25,UE,0,High,0,Happy,20,0,Happy,598.100000000093,1,High,788
108,2,0.25,E,0,High,1,Sad,100,1,Sad,703.699999999953,1,High,510.5
109,2,0.25,E,1,Low,0,Happy,40,0,Happy,1108.89999999991,0,Low,440.59999999986
110,2,0.25,E,0,High,1,Sad,80,1,Sad,1069.60000000009,1,High,559
111,2,0.25,E,0,High,1,Sad,60,0,Happy,1259.10000000009,0,Low,427.100000000093
112,2,0.25,E,1,Low,0,Happy,0,0,Happy,733.100000000093,1,High,533.199999999953
113,2,0.25,UE,0,High,0,Happy,40,0,Happy,616.5,1,High,492.40000000014
114,2,0.25,E,0,High,1,Sad,80,1,Sad,886.09999999986,0,Low,430.800000000047
115,2,0.25,E,0,High,1,Sad,100,1,Sad,1493.19999999995,0,Low,477.800000000047
116,2,0.25,E,0,High,1,Sad,60,1,Sad,896.09999999986,0,Low,423
117,2,0.25,E,1,Low,0,Happy,0,0,Happy,815.600000000093,1,High,484.800000000047
118,2,0.25,E,1,Low,0,Happy,20,0,Happy,529.59999999986,1,High,429.699999999953
119,2,0.25,UE,0,High,0,Happy,0,0,Happy,620.5,1,High,714.5
120,2,0.25,E,0,High,1,Sad,100,1,Sad,754.300000000047,0,Low,404.09999999986
121,3,0.75,E,0,High,0,Happy,0,0,Happy,664.800000000047,1,High,1875.5
122,3,0.75,E,0,High,0,Happy,40,0,Happy,733.5,1,High,667.399999999907
123,3,0.75,E,0,High,0,Happy,0,0,Happy,619.699999999953,1,High,451.5
124,3,0.75,E,1,Low,1,Sad,80,1,Sad,552.199999999953,0,Low,565.100000000093
125,3,0.75,E,1,Low,1,Sad,60,1,Sad,904.90000000014,0,Low,407.90000000014
126,3,0.75,UE,0,High,1,Sad,100,1,Sad,780.300000000047,1,High,582
127,3,0.75,E,0,High,0,Happy,20,0,Happy,744.5,0,Low,553.699999999953
128,3,0.75,E,0,High,0,Happy,40,1,Sad,885.5,0,Low,523.100000000093
129,3,0.75,UE,1,Low,0,Happy,20,0,Happy,1006.19999999995,0,Low,483.399999999907
130,3,0.75,E,1,Low,1,Sad,100,1,Sad,864.90000000014,1,High,457.899999999907
131,3,0.75,E,0,High,0,Happy,40,0,Happy,1279.5,0,Low,2684.69999999995
132,3,0.75,UE,1,Low,0,Happy,40,0,Happy,1565.79999999981,0,Low,419.5
133,3,0.75,UE,0,High,1,Sad,60,1,Sad,995.199999999953,0,Low,527.40000000014
134,3,0.75,E,1,Low,1,Sad,80,1,Sad,915.100000000093,0,Low,412.199999999953
135,3,0.75,E,1,Low,1,Sad,60,1,Sad,748.300000000047,0,Low,426.699999999953
136,3,0.75,E,1,Low,1,Sad,60,1,Sad,664.199999999953,0,Low,411.300000000047
137,3,0.75,E,1,Low,1,Sad,100,1,Sad,785.800000000047,1,High,473.199999999953
138,3,0.75,UE,0,High,1,Sad,80,1,Sad,682.800000000047,1,High,486.199999999953
139,3,0.75,E,0,High,0,Happy,20,0,Happy,815.199999999953,1,High,490
140,3,0.75,E,1,Low,1,Sad,80,1,Sad,667.600000000093,0,Low,402.600000000093
141,3,0.75,E,1,Low,1,Sad,100,1,Sad,627.40000000014,1,High,411.800000000047
142,3,0.75,E,0,High,0,Happy,0,0,Happy,1197.39999999991,1,High,428
143,3,0.75,UE,1,Low,0,Happy,0,0,Happy,545.600000000093,1,High,478.800000000047
144,3,0.75,E,0,High,0,Happy,20,0,Happy,469,1,High,441.5
145,4,0.25,E,1,Low,0,Happy,0,0,Happy,656.90000000014,1,High,426.59999999986
146,4,0.25,E,1,Low,0,Happy,20,0,Happy,539.300000000047,1,High,466.799999999814
147,4,0.25,UE,1,Low,1,Sad,80,1,Sad,774.09999999986,1,High,435
148,4,0.25,UE,0,High,0,Happy,40,0,Happy,1151.59999999986,0,Low,432.700000000186
149,4,0.25,E,0,High,1,Sad,80,1,Sad,901.600000000093,1,High,501.800000000047
150,4,0.25,E,0,High,1,Sad,60,1,Sad,690.399999999907,0,Low,628.800000000047
151,4,0.25,E,1,Low,0,Happy,0,0,Happy,495.5,1,High,420.5
152,4,0.25,E,0,High,1,Sad,80,1,Sad,954.90000000014,1,High,423.100000000093
153,4,0.25,E,1,Low,0,Happy,40,0,Happy,808.199999999953,1,High,417.09999999986
154,4,0.25,E,0,High,1,Sad,100,1,Sad,702.199999999953,1,High,428.300000000047
155,4,0.25,E,0,High,1,Sad,100,1,Sad,614.399999999907,1,High,446.300000000047
156,4,0.25,E,0,High,1,Sad,80,1,Sad,525.800000000047,1,High,476.199999999953
157,4,0.25,E,1,Low,0,Happy,20,0,Happy,1009.20000000019,1,High,394
158,4,0.25,UE,0,High,0,Happy,20,0,Happy,829.399999999907,1,High,448.699999999953
159,4,0.25,E,0,High,1,Sad,60,0,Happy,1060.19999999995,0,Low,486.199999999953
160,4,0.25,E,1,Low,0,Happy,40,0,Happy,925.699999999953,0,Low,503.800000000047
161,4,0.25,E,1,Low,0,Happy,0,0,Happy,890.40000000014,1,High,404.300000000047
162,4,0.25,UE,1,Low,1,Sad,60,0,Happy,1041.5,0,Low,466.5
163,4,0.25,E,0,High,1,Sad,100,1,Sad,879.100000000093,1,High,439.5
164,4,0.25,E,0,High,1,Sad,60,0,Happy,651.59999999986,0,Low,490.40000000014
165,4,0.25,UE,0,High,0,Happy,0,0,Happy,732,1,High,472.300000000047
166,4,0.25,E,1,Low,0,Happy,40,0,Happy,1476.5,0,Low,460.899999999907
167,4,0.25,E,1,Low,0,Happy,20,0,Happy,598,0,Low,539.5
168,4,0.25,UE,1,Low,1,Sad,100,1,Sad,1250.5,1,High,449.699999999953
169,5,0.75,E,0,High,0,Happy,20,0,Happy,1101.40000000014,1,High,462.59999999986
170,5,0.75,UE,0,High,1,Sad,60,0,Happy,851.199999999953,0,Low,857
171,5,0.75,E,0,High,0,Happy,0,0,Happy,684,1,High,409.5
172,5,0.75,E,0,High,0,Happy,40,0,Happy,748.100000000093,0,Low,479
173,5,0.75,E,1,Low,1,Sad,60,1,Sad,1193.79999999981,0,Low,394.600000000093
174,5,0.75,E,1,Low,1,Sad,80,1,Sad,946.40000000014,1,High,452.299999999814
175,5,0.75,E,1,Low,1,Sad,60,1,Sad,1053.40000000014,0,Low,435.90000000014
176,5,0.75,E,0,High,0,Happy,20,0,Happy,590.899999999907,0,Low,742.399999999907
177,5,0.75,E,1,Low,1,Sad,100,1,Sad,743.5,1,High,462.09999999986
178,5,0.75,UE,1,Low,0,Happy,0,0,Happy,632.899999999907,1,High,444.600000000093
179,5,0.75,E,0,High,0,Happy,20,0,Happy,644.300000000047,1,High,416.899999999907
180,5,0.75,UE,1,Low,0,Happy,40,0,Happy,726.100000000093,1,High,434.299999999814
181,5,0.75,E,1,Low,1,Sad,60,0,Happy,804.899999999907,0,Low,2336.39999999991
182,5,0.75,E,0,High,0,Happy,40,0,Happy,1642.69999999995,0,Low,546.40000000014
183,5,0.75,E,1,Low,1,Sad,80,1,Sad,828.800000000047,0,Low,1067.10000000009
184,5,0.75,E,1,Low,1,Sad,80,0,Happy,942.799999999814,0,Low,378.699999999953
185,5,0.75,UE,0,High,1,Sad,80,1,Sad,916.100000000093,0,Low,422.800000000047
186,5,0.75,UE,0,High,1,Sad,100,1,Sad,702,1,High,469.700000000186
187,5,0.75,E,0,High,0,Happy,0,0,Happy,546.199999999953,1,High,463.800000000047
188,5,0.75,E,1,Low,1,Sad,100,1,Sad,837.199999999953,1,High,386.59999999986
189,5,0.75,UE,1,Low,0,Happy,20,0,Happy,752.399999999907,0,Low,412.5
190,5,0.75,E,0,High,0,Happy,0,0,Happy,571,1,High,454.899999999907
191,5,0.75,E,1,Low,1,Sad,100,1,Sad,887.40000000014,1,High,399.5
192,5,0.75,E,0,High,0,Happy,40,0,Happy,781.100000000093,0,Low,384.5
