Trial_N,Block_N,Contingency,Expectedness,Cue_idx,Cue_name,Outcome_idx,Outcome_name,Outcome_p_sad,Response_idx,Response_name,Response_RT,Confidence_idx,Confidence_name,Confidence_RT
1,1,0.75,E,1,Low,1,Sad,80,NaN,,3996,NaN,,NaN
2,1,0.75,E,1,Low,1,Sad,100,1,Sad,2150.39999985695,1,High,1780.20000004768
3,1,0.75,E,1,Low,1,Sad,80,1,Sad,936,1,High,740.899999856949
4,1,0.75,E,0,High,0,Happy,20,0,Happy,1536.70000004768,1,High,1025.09999990463
5,1,0.75,E,0,High,0,Happy,0,0,Happy,670.900000095367,1,High,473.799999952316
6,1,0.75,UE,0,High,1,Sad,100,1,Sad,643.799999952316,1,High,475.699999809265
7,1,0.75,E,1,Low,1,Sad,60,1,Sad,773,1,High,401.200000047684
8,1,0.75,E,0,High,0,Happy,20,0,Happy,589.699999809265,1,High,404.100000143051
9,1,0.75,UE,1,Low,0,Happy,20,0,Happy,623.200000047684,1,High,418.699999809265
10,1,0.75,E,1,Low,1,Sad,100,1,Sad,576.5,1,High,498.100000143051
11,1,0.75,E,1,Low,1,Sad,60,1,Sad,793.5,1,High,420.199999809265
12,1,0.75,E,0,High,0,Happy,40,0,Happy,524,1,High,459
13,1,0.75,E,1,Low,1,Sad,60,1,Sad,537.200000047684,1,High,505.200000047684
14,1,0.75,E,1,Low,1,Sad,60,1,Sad,801.200000047684,1,High,462.400000095367
15,1,0.75,E,1,Low,1,Sad,60,1,Sad,412.399999856949,1,High,435
16,1,0.75,UE,0,High,1,Sad,80,1,Sad,525.400000095367,1,High,439
17,1,0.75,E,0,High,0,Happy,0,0,Happy,484.199999809265,1,High,473.299999952316
18,1,0.75,E,0,High,0,Happy,20,0,Happy,408.699999809265,1,High,444.399999856949
19,1,0.75,E,1,Low,1,Sad,80,1,Sad,450.600000143051,1,High,379.600000143051
20,1,0.75,E,0,High,0,Happy,0,0,Happy,203.399999856949,1,High,360.400000095367
21,1,0.75,UE,0,High,1,Sad,100,1,Sad,575.299999952316,1,High,367.100000143051
22,1,0.75,E,0,High,0,Happy,20,0,Happy,537.099999904633,1,High,421.400000095367
23,1,0.75,E,1,Low,1,Sad,60,1,Sad,393.200000047684,1,High,416.799999952316
24,1,0.75,E,0,High,0,Happy,40,0,Happy,385.299999952316,1,High,432.5
25,1,0.75,UE,1,Low,0,Happy,0,0,Happy,397.299999952316,1,High,369.599999904633
26,1,0.75,E,1,Low,1,Sad,80,1,Sad,358.5,1,High,395.700000047684
27,1,0.75,E,0,High,0,Happy,0,0,Happy,316.799999952316,1,High,397.799999952316
28,1,0.75,E,0,High,0,Happy,0,0,Happy,308.599999904633,1,High,407.899999856949
29,1,0.75,E,1,Low,1,Sad,60,1,Sad,374.200000047684,1,High,365
30,1,0.75,E,1,Low,1,Sad,100,1,Sad,447.5,1,High,349.699999809265
31,1,0.75,UE,1,Low,0,Happy,40,0,Happy,487.5,1,High,396.099999904633
32,1,0.75,UE,0,High,1,Sad,100,1,Sad,445.200000047684,1,High,352.900000095367
33,1,0.75,E,0,High,0,Happy,40,0,Happy,472.200000047684,1,High,354.100000143051
34,1,0.75,E,0,High,0,Happy,40,0,Happy,471.799999952316,1,High,334.5
35,1,0.75,E,1,Low,1,Sad,80,1,Sad,497.099999904633,1,High,371.200000047684
36,1,0.75,E,1,Low,1,Sad,60,1,Sad,657.600000143051,1,High,275.200000047684
37,1,0.75,E,0,High,0,Happy,40,1,Sad,425.299999952316,1,High,328.200000047684
38,1,0.75,UE,0,High,1,Sad,80,1,Sad,561,1,High,329.799999952316
39,1,0.75,E,1,Low,1,Sad,60,1,Sad,507.5,1,High,383.5
40,1,0.75,E,0,High,0,Happy,40,0,Happy,408.700000047684,1,High,350.899999856949
41,1,0.75,UE,1,Low,0,Happy,20,0,Happy,490.700000047684,1,High,349.900000095367
42,1,0.75,E,0,High,0,Happy,20,0,Happy,414.799999952316,1,High,341.399999856949
43,1,0.75,E,1,Low,1,Sad,100,1,Sad,491.299999952316,1,High,320.399999856949
44,1,0.75,UE,0,High,1,Sad,80,1,Sad,504.900000095367,1,High,309.5
45,1,0.75,E,1,Low,1,Sad,100,1,Sad,459.799999952316,1,High,311.299999952316
46,1,0.75,E,0,High,0,Happy,0,0,Happy,508.200000047684,1,High,322.700000047684
47,1,0.75,E,1,Low,1,Sad,80,1,Sad,380,1,High,286.099999904633
48,1,0.75,UE,1,Low,0,Happy,20,0,Happy,409.799999952316,1,High,356.799999952316
49,1,0.75,E,0,High,0,Happy,0,0,Happy,381.5,1,High,313.5
50,1,0.75,E,1,Low,1,Sad,80,1,Sad,398.200000047684,1,High,323.600000143051
51,1,0.75,E,0,High,0,Happy,20,0,Happy,363.700000047684,1,High,324.400000095367
52,1,0.75,UE,0,High,1,Sad,60,1,Sad,506.200000047684,1,High,303
53,1,0.75,UE,1,Low,0,Happy,0,0,Happy,414.699999809265,1,High,327
54,1,0.75,E,1,Low,1,Sad,100,1,Sad,489.799999952316,1,High,310.600000143051
55,1,0.75,E,1,Low,1,Sad,100,1,Sad,430,1,High,379.100000143051
56,1,0.75,E,0,High,0,Happy,0,0,Happy,321.299999952316,1,High,323.5
57,1,0.75,E,1,Low,1,Sad,100,1,Sad,463.899999856949,1,High,344.900000095367
58,1,0.75,UE,0,High,1,Sad,100,1,Sad,480.099999904633,1,High,338.599999904633
59,1,0.75,E,1,Low,1,Sad,80,1,Sad,508.900000095367,1,High,313.100000143051
60,1,0.75,E,0,High,0,Happy,20,0,Happy,422.900000095367,1,High,360.200000047684
61,1,0.75,UE,1,Low,0,Happy,40,0,Happy,433.600000143051,1,High,366.200000047684
62,1,0.75,UE,1,Low,0,Happy,20,0,Happy,569.299999952316,1,High,237.599999904633
63,1,0.75,E,0,High,0,Happy,20,0,Happy,416,1,High,260.200000047684
64,1,0.75,E,1,Low,1,Sad,60,1,Sad,404.900000095367,1,High,263.299999952316
65,1,0.75,E,0,High,0,Happy,40,0,Happy,511,1,High,277.799999952316
66,1,0.75,E,1,Low,1,Sad,80,1,Sad,490.899999856949,1,High,296.200000047684
67,1,0.75,UE,1,Low,0,Happy,0,0,Happy,547,1,High,233.400000095367
68,1,0.75,E,0,High,0,Happy,40,0,Happy,443.5,1,High,239
69,1,0.75,E,0,High,0,Happy,40,0,Happy,309.599999904633,1,High,304.5
70,1,0.75,E,0,High,0,Happy,0,0,Happy,349,1,High,277.5
71,1,0.75,UE,1,Low,0,Happy,0,0,Happy,385,1,High,270.400000095367
72,1,0.75,E,1,Low,1,Sad,60,1,Sad,399.599999904633,1,High,279.900000095367
73,1,0.75,E,0,High,0,Happy,40,0,Happy,578.900000095367,1,High,235
74,1,0.75,E,1,Low,1,Sad,100,1,Sad,845.5,1,High,314.700000047684
75,1,0.75,E,1,Low,1,Sad,100,1,Sad,494.200000047684,1,High,343.900000095367
76,1,0.75,E,0,High,0,Happy,20,0,Happy,407.5,1,High,311.399999856949
77,1,0.75,UE,0,High,1,Sad,60,0,Happy,679.099999904633,1,High,265.299999952316
78,1,0.75,E,0,High,0,Happy,0,0,Happy,530.299999952316,1,High,303.599999904633
79,1,0.75,E,0,High,0,Happy,40,0,Happy,531.799999952316,1,High,291.099999904633
80,1,0.75,UE,0,High,1,Sad,60,0,Happy,953.799999952316,1,High,253.299999952316
81,1,0.75,E,0,High,0,Happy,40,0,Happy,552,1,High,226.700000047684
82,1,0.75,UE,0,High,1,Sad,80,1,Sad,592.700000047684,1,High,345.900000095367
83,1,0.75,E,0,High,0,Happy,0,0,Happy,313.299999952316,1,High,381.5
84,1,0.75,E,0,High,0,Happy,20,0,Happy,372,1,High,383.399999856949
85,1,0.75,E,1,Low,1,Sad,100,1,Sad,408.900000095367,1,High,1161.5
86,1,0.75,E,1,Low,1,Sad,100,1,Sad,394.599999904633,1,High,1248.90000009537
87,1,0.75,UE,1,Low,0,Happy,40,0,Happy,481.400000095367,1,High,371.5
88,1,0.75,E,1,Low,1,Sad,80,1,Sad,378.799999952316,1,High,399.599999904633
89,1,0.75,E,0,High,0,Happy,0,0,Happy,467,1,High,352.299999952316
90,1,0.75,UE,0,High,1,Sad,60,1,Sad,496.400000095367,1,High,475.200000047684
91,1,0.75,E,1,Low,1,Sad,60,0,Happy,576.700000047684,1,High,445
92,1,0.75,E,1,Low,1,Sad,80,1,Sad,703.400000095367,1,High,343.399999856949
93,1,0.75,E,0,High,0,Happy,20,0,Happy,472.200000047684,1,High,295.099999904633
94,1,0.75,E,0,High,0,Happy,20,0,Happy,387.799999952316,1,High,327.700000047684
95,1,0.75,UE,1,Low,0,Happy,40,0,Happy,542.299999952316,1,High,255.299999952316
96,1,0.75,E,1,Low,1,Sad,80,1,Sad,457.099999904633,1,High,386.699999809265
97,2,0.25,E,1,Low,0,Happy,0,0,Happy,395.599999904633,1,High,358.599999904633
98,2,0.25,UE,1,Low,1,Sad,80,1,Sad,427.900000095367,1,High,476.099999904633
99,2,0.25,E,1,Low,0,Happy,40,0,Happy,432.099999904633,1,High,411.399999856949
100,2,0.25,E,1,Low,0,Happy,40,0,Happy,432.599999904633,1,High,342.300000190735
101,2,0.25,E,0,High,1,Sad,60,0,Happy,473.700000047684,1,High,291.5
102,2,0.25,E,1,Low,0,Happy,20,0,Happy,419.5,1,High,298.599999904633
103,2,0.25,E,0,High,1,Sad,80,1,Sad,542.200000047684,1,High,344.900000095367
104,2,0.25,UE,1,Low,1,Sad,100,1,Sad,513.299999952316,1,High,366.5
105,2,0.25,E,1,Low,0,Happy,20,0,Happy,414.600000143051,1,High,334
106,2,0.25,UE,1,Low,1,Sad,60,0,Happy,733.799999952316,1,High,279.799999952316
107,2,0.25,UE,0,High,0,Happy,20,0,Happy,582.699999809265,1,High,314.400000095367
108,2,0.25,E,0,High,1,Sad,100,1,Sad,400,1,High,388.100000143051
109,2,0.25,E,1,Low,0,Happy,40,0,Happy,596.299999952316,1,High,703.200000047684
110,2,0.25,E,0,High,1,Sad,80,1,Sad,562.399999856949,1,High,380.699999809265
111,2,0.25,E,0,High,1,Sad,60,0,Happy,744.799999952316,1,High,408.700000047684
112,2,0.25,E,1,Low,0,Happy,0,0,Happy,427.299999952316,1,High,337.5
113,2,0.25,UE,0,High,0,Happy,40,0,Happy,803.299999952316,1,High,279.799999952316
114,2,0.25,E,0,High,1,Sad,80,1,Sad,446.700000047684,1,High,363.900000095367
115,2,0.25,E,0,High,1,Sad,100,1,Sad,358.799999952316,1,High,385.600000143051
116,2,0.25,E,0,High,1,Sad,60,1,Sad,561.199999809265,1,High,349.900000095367
117,2,0.25,E,1,Low,0,Happy,0,0,Happy,926.799999952316,1,High,642.5
118,2,0.25,E,1,Low,0,Happy,20,0,Happy,475.700000047684,1,High,336.299999952316
119,2,0.25,UE,0,High,0,Happy,0,0,Happy,429.099999904633,1,High,326.699999809265
120,2,0.25,E,0,High,1,Sad,100,1,Sad,425.299999952316,1,High,382.400000095367
121,3,0.75,E,0,High,0,Happy,0,0,Happy,335.700000047684,1,High,344.799999952316
122,3,0.75,E,0,High,0,Happy,40,0,Happy,389.700000047684,1,High,343.900000095367
123,3,0.75,E,0,High,0,Happy,0,0,Happy,357.899999856949,1,High,292.699999809265
124,3,0.75,E,1,Low,1,Sad,80,1,Sad,391.600000143051,1,High,409.400000095367
125,3,0.75,E,1,Low,1,Sad,60,1,Sad,292.299999952316,1,High,364.299999952316
126,3,0.75,UE,0,High,1,Sad,100,1,Sad,393.100000143051,1,High,344.099999904633
127,3,0.75,E,0,High,0,Happy,20,0,Happy,398.700000047684,1,High,297.699999809265
128,3,0.75,E,0,High,0,Happy,40,0,Happy,565.599999904633,1,High,276.099999904633
129,3,0.75,UE,1,Low,0,Happy,20,0,Happy,419.399999856949,1,High,279
130,3,0.75,E,1,Low,1,Sad,100,1,Sad,466.700000047684,1,High,489.400000095367
131,3,0.75,E,0,High,0,Happy,40,1,Sad,1316.29999995232,1,High,355.300000190735
132,3,0.75,UE,1,Low,0,Happy,40,1,Sad,598.399999856949,0,Low,1802
133,3,0.75,UE,0,High,1,Sad,60,1,Sad,570.5,1,High,789.200000047684
134,3,0.75,E,1,Low,1,Sad,80,1,Sad,452.400000095367,1,High,302.599999904633
135,3,0.75,E,1,Low,1,Sad,60,1,Sad,835.200000047684,1,High,299.5
136,3,0.75,E,1,Low,1,Sad,60,1,Sad,562.100000143051,1,High,332.200000047684
137,3,0.75,E,1,Low,1,Sad,100,1,Sad,747,1,High,280.799999952316
138,3,0.75,UE,0,High,1,Sad,80,1,Sad,528,1,High,264.299999952316
139,3,0.75,E,0,High,0,Happy,20,0,Happy,415,1,High,306.5
140,3,0.75,E,1,Low,1,Sad,80,1,Sad,504.200000047684,1,High,230.799999952316
141,3,0.75,E,1,Low,1,Sad,100,1,Sad,399,1,High,252.099999904633
142,3,0.75,E,0,High,0,Happy,0,0,Happy,366.599999904633,1,High,204.399999856949
143,3,0.75,UE,1,Low,0,Happy,0,0,Happy,315.100000143051,1,High,233.700000047684
144,3,0.75,E,0,High,0,Happy,20,0,Happy,399.799999952316,1,High,270.899999856949
145,4,0.25,E,1,Low,0,Happy,0,0,Happy,430.5,1,High,327.099999904633
146,4,0.25,E,1,Low,0,Happy,20,0,Happy,255.799999952316,1,High,385.099999904633
147,4,0.25,UE,1,Low,1,Sad,80,1,Sad,403.700000047684,1,High,255.400000095367
148,4,0.25,UE,0,High,0,Happy,40,0,Happy,513.800000190735,1,High,279.299999952316
149,4,0.25,E,0,High,1,Sad,80,1,Sad,660.900000095367,1,High,271
150,4,0.25,E,0,High,1,Sad,60,1,Sad,437,1,High,280.700000047684
151,4,0.25,E,1,Low,0,Happy,0,0,Happy,405.900000095367,1,High,269.599999904633
152,4,0.25,E,0,High,1,Sad,80,1,Sad,372.400000095367,1,High,358.200000047684
153,4,0.25,E,1,Low,0,Happy,40,1,Sad,584.299999952316,0,Low,1274.79999995232
154,4,0.25,E,0,High,1,Sad,100,1,Sad,770.299999952316,1,High,348.700000047684
155,4,0.25,E,0,High,1,Sad,100,1,Sad,501.200000047684,1,High,249.299999952316
156,4,0.25,E,0,High,1,Sad,80,1,Sad,466.100000143051,1,High,420.700000047684
157,4,0.25,E,1,Low,0,Happy,20,0,Happy,597.899999856949,1,High,608.600000143051
158,4,0.25,UE,0,High,0,Happy,20,1,Sad,455.599999904633,0,Low,919.200000047684
159,4,0.25,E,0,High,1,Sad,60,0,Happy,926.299999952316,1,High,315.200000047684
160,4,0.25,E,1,Low,0,Happy,40,0,Happy,1067.80000019073,1,High,285.799999952316
161,4,0.25,E,1,Low,0,Happy,0,0,Happy,424.600000143051,1,High,252.200000047684
162,4,0.25,UE,1,Low,1,Sad,60,1,Sad,312.900000095367,1,High,301.700000047684
163,4,0.25,E,0,High,1,Sad,100,1,Sad,283.100000143051,1,High,284.599999904633
164,4,0.25,E,0,High,1,Sad,60,0,Happy,762,1,High,255.599999904633
165,4,0.25,UE,0,High,0,Happy,0,1,Sad,424.5,0,Low,1065.29999995232
166,4,0.25,E,1,Low,0,Happy,40,0,Happy,432.299999952316,1,High,330.700000047684
167,4,0.25,E,1,Low,0,Happy,20,0,Happy,602.700000047684,1,High,314
168,4,0.25,UE,1,Low,1,Sad,100,1,Sad,486.399999856949,1,High,313.400000095367
169,5,0.75,E,0,High,0,Happy,20,0,Happy,611.700000047684,1,High,281.200000047684
170,5,0.75,UE,0,High,1,Sad,60,1,Sad,723.600000143051,1,High,489.700000047684
171,5,0.75,E,0,High,0,Happy,0,0,Happy,430,1,High,319.400000095367
172,5,0.75,E,0,High,0,Happy,40,0,Happy,387.900000095367,1,High,282.800000190735
173,5,0.75,E,1,Low,1,Sad,60,0,Happy,990.099999904633,1,High,225.299999952316
174,5,0.75,E,1,Low,1,Sad,80,1,Sad,634,1,High,257.899999856949
175,5,0.75,E,1,Low,1,Sad,60,1,Sad,363.200000047684,1,High,295
176,5,0.75,E,0,High,0,Happy,20,0,Happy,480.799999952316,1,High,261.099999904633
177,5,0.75,E,1,Low,1,Sad,100,1,Sad,581.399999856949,1,High,261.399999856949
178,5,0.75,UE,1,Low,0,Happy,0,0,Happy,454.900000095367,1,High,282
179,5,0.75,E,0,High,0,Happy,20,0,Happy,765.799999952316,1,High,274.699999809265
180,5,0.75,UE,1,Low,0,Happy,40,0,Happy,532.299999952316,1,High,318.899999856949
181,5,0.75,E,1,Low,1,Sad,60,0,Happy,716.900000095367,1,High,247.899999856949
182,5,0.75,E,0,High,0,Happy,40,0,Happy,391.5,1,High,258.5
183,5,0.75,E,1,Low,1,Sad,80,1,Sad,408.599999904633,1,High,274.299999952316
184,5,0.75,E,1,Low,1,Sad,80,1,Sad,724.099999904633,1,High,325.5
185,5,0.75,UE,0,High,1,Sad,80,1,Sad,370.900000095367,1,High,377.100000143051
186,5,0.75,UE,0,High,1,Sad,100,1,Sad,389.599999904633,1,High,304
187,5,0.75,E,0,High,0,Happy,0,0,Happy,437.799999952316,1,High,272.299999952316
188,5,0.75,E,1,Low,1,Sad,100,1,Sad,504.200000047684,1,High,282.799999952316
189,5,0.75,UE,1,Low,0,Happy,20,0,Happy,406.099999904633,1,High,281.5
190,5,0.75,E,0,High,0,Happy,0,0,Happy,412.900000095367,1,High,261.5
191,5,0.75,E,1,Low,1,Sad,100,1,Sad,523.600000143051,1,High,270.100000143051
192,5,0.75,E,0,High,0,Happy,40,0,Happy,579.100000143051,1,High,210.100000143051
