Trial_N,Block_N,Contingency,Expectedness,Cue_idx,Cue_name,Outcome_idx,Outcome_name,Outcome_p_sad,Response_idx,Response_name,Response_RT,Confidence_idx,Confidence_name,Confidence_RT
1,1,0.75,E,1,Low,1,Sad,80,1,Sad,1422,1,High,1498.59999990463
2,1,0.75,E,1,Low,1,Sad,100,1,Sad,1019,1,High,726.199999809265
3,1,0.75,E,1,Low,1,Sad,80,1,Sad,592.899999856949,1,High,985.399999856949
4,1,0.75,E,0,High,0,Happy,20,0,Happy,994.599999904633,1,High,1822.40000009537
5,1,0.75,E,0,High,0,Happy,0,0,Happy,866.600000143051,1,High,485.700000047684
6,1,0.75,UE,0,High,1,Sad,100,1,Sad,458.299999952316,1,High,916.800000190735
7,1,0.75,E,1,Low,1,Sad,60,1,Sad,673,1,High,1378.39999985695
8,1,0.75,E,0,High,0,Happy,20,0,Happy,778.099999904633,1,High,553.900000095367
9,1,0.75,UE,1,Low,0,Happy,20,0,Happy,1264.5,1,High,428.200000047684
10,1,0.75,E,1,Low,1,Sad,100,0,Happy,1224.79999995232,1,High,482.800000190735
11,1,0.75,E,1,Low,1,Sad,60,1,Sad,708.699999809265,0,Low,888
12,1,0.75,E,0,High,0,Happy,40,1,Sad,1726.59999990463,0,Low,649.700000047684
13,1,0.75,E,1,Low,1,Sad,60,1,Sad,688.900000095367,1,High,811.399999856949
14,1,0.75,E,1,Low,1,Sad,60,1,Sad,845.799999952316,1,High,553.200000047684
15,1,0.75,E,1,Low,1,Sad,60,1,Sad,755.900000095367,1,High,620.799999952316
16,1,0.75,UE,0,High,1,Sad,80,1,Sad,1206.70000004768,1,High,552.799999952316
17,1,0.75,E,0,High,0,Happy,0,0,Happy,964.100000143051,1,High,789
18,1,0.75,E,0,High,0,Happy,20,0,Happy,1260.69999980927,1,High,556.799999952316
19,1,0.75,E,1,Low,1,Sad,80,1,Sad,737.900000095367,1,High,1008.69999980927
20,1,0.75,E,0,High,0,Happy,0,0,Happy,641.399999856949,1,High,923.199999809265
21,1,0.75,UE,0,High,1,Sad,100,0,Happy,867.100000143051,1,High,933.699999809265
22,1,0.75,E,0,High,0,Happy,20,0,Happy,744.799999952316,1,High,1233.70000004768
23,1,0.75,E,1,Low,1,Sad,60,1,Sad,678.800000190735,1,High,476.799999952316
24,1,0.75,E,0,High,0,Happy,40,0,Happy,707.5,1,High,523.299999952316
25,1,0.75,UE,1,Low,0,Happy,0,1,Sad,193.200000047684,0,Low,2307
26,1,0.75,E,1,Low,1,Sad,80,1,Sad,583.700000047684,1,High,1048.60000014305
27,1,0.75,E,0,High,0,Happy,0,0,Happy,1601.09999990463,1,High,278.599999904633
28,1,0.75,E,0,High,0,Happy,0,0,Happy,1448.60000014305,1,High,1243.39999985695
29,1,0.75,E,1,Low,1,Sad,60,1,Sad,571.700000047684,0,Low,927.400000095367
30,1,0.75,E,1,Low,1,Sad,100,1,Sad,687.5,1,High,326.899999856949
31,1,0.75,UE,1,Low,0,Happy,40,1,Sad,1188.5,0,Low,244.100000143051
32,1,0.75,UE,0,High,1,Sad,100,1,Sad,671.599999904633,1,High,840.400000095367
33,1,0.75,E,0,High,0,Happy,40,0,Happy,1374.10000014305,0,Low,660.799999952316
34,1,0.75,E,0,High,0,Happy,40,0,Happy,911.700000047684,0,Low,2128.70000004768
35,1,0.75,E,1,Low,1,Sad,80,1,Sad,615.799999952316,1,High,421.800000190735
36,1,0.75,E,1,Low,1,Sad,60,1,Sad,1162.40000009537,0,Low,801.099999904633
37,1,0.75,E,0,High,0,Happy,40,0,Happy,1062,1,High,551.400000095367
38,1,0.75,UE,0,High,1,Sad,80,1,Sad,652.5,0,Low,522.200000047684
39,1,0.75,E,1,Low,1,Sad,60,1,Sad,635.600000143051,1,High,385.599999904633
40,1,0.75,E,0,High,0,Happy,40,0,Happy,734.099999904633,1,High,321.200000047684
41,1,0.75,UE,1,Low,0,Happy,20,0,Happy,673.699999809265,1,High,572.700000047684
42,1,0.75,E,0,High,0,Happy,20,0,Happy,635.400000095367,1,High,265.099999904633
43,1,0.75,E,1,Low,1,Sad,100,1,Sad,593.900000095367,0,Low,391
44,1,0.75,UE,0,High,1,Sad,80,1,Sad,610.399999856949,0,Low,354.100000143051
45,1,0.75,E,1,Low,1,Sad,100,1,Sad,665.700000047684,1,High,172.899999856949
46,1,0.75,E,0,High,0,Happy,0,0,Happy,562.299999952316,1,High,179.700000047684
47,1,0.75,E,1,Low,1,Sad,80,1,Sad,549.200000047684,1,High,231.299999952316
48,1,0.75,UE,1,Low,0,Happy,20,0,Happy,495.200000047684,1,High,249.5
49,1,0.75,E,0,High,0,Happy,0,0,Happy,828,1,High,242.599999904633
50,1,0.75,E,1,Low,1,Sad,80,1,Sad,572.900000095367,0,Low,847.599999904633
51,1,0.75,E,0,High,0,Happy,20,0,Happy,559.299999952316,1,High,124.799999952316
52,1,0.75,UE,0,High,1,Sad,60,1,Sad,586.599999904633,0,Low,231.099999904633
53,1,0.75,UE,1,Low,0,Happy,0,0,Happy,325,1,High,169.900000095367
54,1,0.75,E,1,Low,1,Sad,100,1,Sad,788.800000190735,0,Low,152.100000143051
55,1,0.75,E,1,Low,1,Sad,100,1,Sad,535.900000095367,0,Low,189.799999952316
56,1,0.75,E,0,High,0,Happy,0,0,Happy,729.100000143051,1,High,139.800000190735
57,1,0.75,E,1,Low,1,Sad,100,1,Sad,451.599999904633,1,High,132.600000143051
58,1,0.75,UE,0,High,1,Sad,100,1,Sad,485.600000143051,1,High,140.200000047684
59,1,0.75,E,1,Low,1,Sad,80,1,Sad,681.299999952316,1,High,187.700000047684
60,1,0.75,E,0,High,0,Happy,20,0,Happy,510.099999904633,1,High,67
61,1,0.75,UE,1,Low,0,Happy,40,0,Happy,990.299999952316,1,High,155.5
62,1,0.75,UE,1,Low,0,Happy,20,0,Happy,894.300000190735,1,High,113.399999856949
63,1,0.75,E,0,High,0,Happy,20,0,Happy,428.599999904633,1,High,130.200000047684
64,1,0.75,E,1,Low,1,Sad,60,1,Sad,751.5,1,High,138
65,1,0.75,E,0,High,0,Happy,40,1,Sad,2065.39999985695,0,Low,1055.09999990463
66,1,0.75,E,1,Low,1,Sad,80,1,Sad,1868.20000004768,1,High,257.099999904633
67,1,0.75,UE,1,Low,0,Happy,0,0,Happy,501.600000143051,1,High,189.099999904633
68,1,0.75,E,0,High,0,Happy,40,0,Happy,702.299999952316,1,High,184.700000047684
69,1,0.75,E,0,High,0,Happy,40,0,Happy,596.600000143051,1,High,121
70,1,0.75,E,0,High,0,Happy,0,0,Happy,373.799999952316,1,High,142.099999904633
71,1,0.75,UE,1,Low,0,Happy,0,0,Happy,462.800000190735,1,High,91.0999999046326
72,1,0.75,E,1,Low,1,Sad,60,1,Sad,920.200000047684,0,Low,235.400000095367
73,1,0.75,E,0,High,0,Happy,40,1,Sad,842.900000095367,0,Low,211.100000143051
74,1,0.75,E,1,Low,1,Sad,100,1,Sad,1458.70000004768,1,High,321.299999952316
75,1,0.75,E,1,Low,1,Sad,100,1,Sad,1038.29999995232,1,High,179.700000047684
76,1,0.75,E,0,High,0,Happy,20,0,Happy,814.200000047684,1,High,126.899999856949
77,1,0.75,UE,0,High,1,Sad,60,1,Sad,716.599999904633,0,Low,140.299999952316
78,1,0.75,E,0,High,0,Happy,0,0,Happy,815.700000047684,1,High,140.200000047684
79,1,0.75,E,0,High,0,Happy,40,0,Happy,633.200000047684,1,High,118
80,1,0.75,UE,0,High,1,Sad,60,1,Sad,1423.89999985695,0,Low,356.200000047684
81,1,0.75,E,0,High,0,Happy,40,0,Happy,586.400000095367,1,High,121.700000047684
82,1,0.75,UE,0,High,1,Sad,80,1,Sad,778.799999952316,1,High,230.200000047684
83,1,0.75,E,0,High,0,Happy,0,0,Happy,495.900000095367,1,High,163.099999904633
84,1,0.75,E,0,High,0,Happy,20,0,Happy,426.5,1,High,685.200000047684
85,1,0.75,E,1,Low,1,Sad,100,1,Sad,595.400000095367,0,Low,146.599999904633
86,1,0.75,E,1,Low,1,Sad,100,1,Sad,523.099999904633,0,Low,118.399999856949
87,1,0.75,UE,1,Low,0,Happy,40,0,Happy,435.600000143051,1,High,94.0999999046326
88,1,0.75,E,1,Low,1,Sad,80,1,Sad,775.200000047684,0,Low,161.200000047684
89,1,0.75,E,0,High,0,Happy,0,0,Happy,280.800000190735,1,High,143.200000047684
90,1,0.75,UE,0,High,1,Sad,60,1,Sad,700.400000095367,0,Low,136.200000047684
91,1,0.75,E,1,Low,1,Sad,60,0,Happy,721.200000047684,1,High,167.5
92,1,0.75,E,1,Low,1,Sad,80,1,Sad,920.899999856949,0,Low,510.300000190735
93,1,0.75,E,0,High,0,Happy,20,0,Happy,593.400000095367,1,High,141.5
94,1,0.75,E,0,High,0,Happy,20,0,Happy,505.100000143051,1,High,170.300000190735
95,1,0.75,UE,1,Low,0,Happy,40,0,Happy,870.799999952316,1,High,334.299999952316
96,1,0.75,E,1,Low,1,Sad,80,1,Sad,757.100000143051,0,Low,160.600000143051
97,2,0.25,E,1,Low,0,Happy,0,0,Happy,788.699999809265,1,High,115.700000047684
98,2,0.25,UE,1,Low,1,Sad,80,1,Sad,682.200000047684,0,Low,106.700000047684
99,2,0.25,E,1,Low,0,Happy,40,0,Happy,223.799999952316,1,High,130.700000047684
100,2,0.25,E,1,Low,0,Happy,40,0,Happy,1177.5,1,High,96.2000000476837
101,2,0.25,E,0,High,1,Sad,60,1,Sad,983.200000047684,0,Low,134.099999904633
102,2,0.25,E,1,Low,0,Happy,20,0,Happy,534.200000047684,1,High,93.3999998569489
103,2,0.25,E,0,High,1,Sad,80,1,Sad,759.700000047684,1,High,727.199999809265
104,2,0.25,UE,1,Low,1,Sad,100,1,Sad,969,1,High,148
105,2,0.25,E,1,Low,0,Happy,20,0,Happy,473.5,1,High,48.2000000476837
106,2,0.25,UE,1,Low,1,Sad,60,1,Sad,601.100000143051,1,High,113.400000095367
107,2,0.25,UE,0,High,0,Happy,20,0,Happy,435.5,1,High,83.7000000476837
108,2,0.25,E,0,High,1,Sad,100,1,Sad,528.799999952316,1,High,221.700000047684
109,2,0.25,E,1,Low,0,Happy,40,1,Sad,1426.29999995232,1,High,662.200000047684
110,2,0.25,E,0,High,1,Sad,80,1,Sad,1101.29999995232,1,High,223.299999952316
111,2,0.25,E,0,High,1,Sad,60,1,Sad,483.199999809265,1,High,78.7000000476837
112,2,0.25,E,1,Low,0,Happy,0,0,Happy,391.099999904633,1,High,60.7000000476837
113,2,0.25,UE,0,High,0,Happy,40,0,Happy,514.899999856949,1,High,217.900000095367
114,2,0.25,E,0,High,1,Sad,80,1,Sad,708.5,1,High,141.900000095367
115,2,0.25,E,0,High,1,Sad,100,1,Sad,360.299999952316,1,High,219.799999952316
116,2,0.25,E,0,High,1,Sad,60,1,Sad,424.599999904633,1,High,117.399999856949
117,2,0.25,E,1,Low,0,Happy,0,0,Happy,568.200000047684,1,High,105.099999904633
118,2,0.25,E,1,Low,0,Happy,20,0,Happy,255.100000143051,1,High,134.700000047684
119,2,0.25,UE,0,High,0,Happy,0,0,Happy,488.399999856949,1,High,151.700000047684
120,2,0.25,E,0,High,1,Sad,100,1,Sad,537.799999952316,1,High,344.400000095367
121,3,0.75,E,0,High,0,Happy,0,1,Sad,436.899999856949,1,High,145.200000047684
122,3,0.75,E,0,High,0,Happy,40,0,Happy,1585.79999995232,1,High,50.0999999046326
123,3,0.75,E,0,High,0,Happy,0,0,Happy,387.399999856949,1,High,131.600000143051
124,3,0.75,E,1,Low,1,Sad,80,1,Sad,546.400000095367,1,High,144.600000143051
125,3,0.75,E,1,Low,1,Sad,60,1,Sad,567.799999952316,1,High,120.199999809265
126,3,0.75,UE,0,High,1,Sad,100,1,Sad,883.599999904633,1,High,120.600000143051
127,3,0.75,E,0,High,0,Happy,20,0,Happy,591.700000047684,1,High,91
128,3,0.75,E,0,High,0,Happy,40,0,Happy,367.800000190735,1,High,137
129,3,0.75,UE,1,Low,0,Happy,20,0,Happy,560.099999904633,1,High,188.399999856949
130,3,0.75,E,1,Low,1,Sad,100,1,Sad,481.700000047684,1,High,159.099999904633
131,3,0.75,E,0,High,0,Happy,40,0,Happy,684.200000047684,1,High,94.7999999523163
132,3,0.75,UE,1,Low,0,Happy,40,0,Happy,436.099999904633,1,High,168.199999809265
133,3,0.75,UE,0,High,1,Sad,60,1,Sad,576.400000095367,1,High,163.700000047684
134,3,0.75,E,1,Low,1,Sad,80,1,Sad,514.200000047684,1,High,131.799999952316
135,3,0.75,E,1,Low,1,Sad,60,1,Sad,437.100000143051,1,High,100.899999856949
136,3,0.75,E,1,Low,1,Sad,60,1,Sad,377,1,High,134.900000095367
137,3,0.75,E,1,Low,1,Sad,100,1,Sad,588.700000047684,1,High,961.5
138,3,0.75,UE,0,High,1,Sad,80,1,Sad,927.699999809265,1,High,75.7000000476837
139,3,0.75,E,0,High,0,Happy,20,0,Happy,597,1,High,83.8000001907349
140,3,0.75,E,1,Low,1,Sad,80,1,Sad,553,1,High,107.899999856949
141,3,0.75,E,1,Low,1,Sad,100,1,Sad,556,1,High,121.700000047684
142,3,0.75,E,0,High,0,Happy,0,0,Happy,499.5,1,High,100.700000047684
143,3,0.75,UE,1,Low,0,Happy,0,0,Happy,462.400000095367,1,High,92.8999998569489
144,3,0.75,E,0,High,0,Happy,20,0,Happy,477.900000095367,1,High,126
145,4,0.25,E,1,Low,0,Happy,0,0,Happy,431,1,High,53.7000000476837
146,4,0.25,E,1,Low,0,Happy,20,0,Happy,419.899999856949,1,High,130.5
147,4,0.25,UE,1,Low,1,Sad,80,1,Sad,597.299999952316,1,High,911.800000190735
148,4,0.25,UE,0,High,0,Happy,40,0,Happy,393.399999856949,1,High,114.200000047684
149,4,0.25,E,0,High,1,Sad,80,1,Sad,573,1,High,144.699999809265
150,4,0.25,E,0,High,1,Sad,60,0,Happy,869.299999952316,1,High,122.599999904633
151,4,0.25,E,1,Low,0,Happy,0,0,Happy,381.200000047684,1,High,55.9000000953674
152,4,0.25,E,0,High,1,Sad,80,1,Sad,691.200000047684,1,High,121.700000047684
153,4,0.25,E,1,Low,0,Happy,40,0,Happy,1440.29999995232,1,High,124.199999809265
154,4,0.25,E,0,High,1,Sad,100,1,Sad,484.200000047684,1,High,117.699999809265
155,4,0.25,E,0,High,1,Sad,100,1,Sad,319.699999809265,1,High,108
156,4,0.25,E,0,High,1,Sad,80,1,Sad,411.299999952316,1,High,103
157,4,0.25,E,1,Low,0,Happy,20,0,Happy,284.299999952316,1,High,124.5
158,4,0.25,UE,0,High,0,Happy,20,0,Happy,517,1,High,132.800000190735
159,4,0.25,E,0,High,1,Sad,60,1,Sad,698.099999904633,1,High,768.099999904633
160,4,0.25,E,1,Low,0,Happy,40,0,Happy,1203.5,1,High,119
161,4,0.25,E,1,Low,0,Happy,0,0,Happy,451.599999904633,1,High,640
162,4,0.25,UE,1,Low,1,Sad,60,1,Sad,720.799999952316,1,High,83.2999999523163
163,4,0.25,E,0,High,1,Sad,100,1,Sad,776.700000047684,1,High,80.7000000476837
164,4,0.25,E,0,High,1,Sad,60,1,Sad,657.299999952316,1,High,72.7999999523163
165,4,0.25,UE,0,High,0,Happy,0,0,Happy,416.899999856949,1,High,109.299999952316
166,4,0.25,E,1,Low,0,Happy,40,0,Happy,1082.10000014305,1,High,71.1000001430511
167,4,0.25,E,1,Low,0,Happy,20,0,Happy,244.799999952316,1,High,164.399999856949
168,4,0.25,UE,1,Low,1,Sad,100,1,Sad,593.599999904633,1,High,233.600000143051
169,5,0.75,E,0,High,0,Happy,20,0,Happy,367.799999952316,1,High,189.700000047684
170,5,0.75,UE,0,High,1,Sad,60,1,Sad,774.700000047684,1,High,61.7999999523163
171,5,0.75,E,0,High,0,Happy,0,0,Happy,705.799999952316,1,High,138.700000047684
172,5,0.75,E,0,High,0,Happy,40,0,Happy,356,1,High,112.700000047684
173,5,0.75,E,1,Low,1,Sad,60,1,Sad,593.600000143051,1,High,94.5999999046326
174,5,0.75,E,1,Low,1,Sad,80,1,Sad,733.899999856949,1,High,87.2999999523163
175,5,0.75,E,1,Low,1,Sad,60,1,Sad,632.300000190735,1,High,85.2999999523163
176,5,0.75,E,0,High,0,Happy,20,0,Happy,646.200000047684,1,High,124.899999856949
177,5,0.75,E,1,Low,1,Sad,100,1,Sad,552.400000095367,1,High,87.7000000476837
178,5,0.75,UE,1,Low,0,Happy,0,0,Happy,471.599999904633,1,High,100.700000047684
179,5,0.75,E,0,High,0,Happy,20,0,Happy,553.5,1,High,98.9000000953674
180,5,0.75,UE,1,Low,0,Happy,40,0,Happy,473.100000143051,1,High,102
181,5,0.75,E,1,Low,1,Sad,60,1,Sad,884.399999856949,1,High,184.700000047684
182,5,0.75,E,0,High,0,Happy,40,0,Happy,884.900000095367,1,High,116.5
183,5,0.75,E,1,Low,1,Sad,80,1,Sad,695.299999952316,1,High,226.900000095367
184,5,0.75,E,1,Low,1,Sad,80,1,Sad,655.600000143051,1,High,605.200000047684
185,5,0.75,UE,0,High,1,Sad,80,1,Sad,522.099999904633,1,High,81.7999999523163
186,5,0.75,UE,0,High,1,Sad,100,1,Sad,344.200000047684,1,High,111.400000095367
187,5,0.75,E,0,High,0,Happy,0,0,Happy,420.899999856949,1,High,82.4000000953674
188,5,0.75,E,1,Low,1,Sad,100,1,Sad,583.799999952316,1,High,177.700000047684
189,5,0.75,UE,1,Low,0,Happy,20,0,Happy,520,1,High,687.400000095367
190,5,0.75,E,0,High,0,Happy,0,0,Happy,382.799999952316,1,High,120.599999904633
191,5,0.75,E,1,Low,1,Sad,100,1,Sad,465.700000047684,1,High,112.300000190735
192,5,0.75,E,0,High,0,Happy,40,0,Happy,400.800000190735,1,High,154.200000047684
