Trial_N,Block_N,Contingency,Expectedness,Cue_idx,Cue_name,Outcome_idx,Outcome_name,Outcome_p_sad,Response_idx,Response_name,Response_RT,Confidence_idx,Confidence_name,Confidence_RT
1,1,0.75,E,1,Low,1,Sad,80,0,Happy,3197,1,High,3609
2,1,0.75,E,1,Low,1,Sad,100,1,Sad,2937,1,High,1228
3,1,0.75,E,1,Low,1,Sad,80,0,Happy,1338,1,High,1104
4,1,0.75,E,0,High,0,Happy,20,0,Happy,893,1,High,1149
5,1,0.75,E,0,High,0,Happy,0,0,Happy,586,1,High,572
6,1,0.75,UE,0,High,1,Sad,100,1,Sad,812,1,High,1041
7,1,0.75,E,1,Low,1,Sad,60,0,Happy,782,1,High,507
8,1,0.75,E,0,High,0,Happy,20,0,Happy,508,1,High,380
9,1,0.75,UE,1,Low,0,Happy,20,0,Happy,475,1,High,426
10,1,0.75,E,1,Low,1,Sad,100,1,Sad,510,1,High,572
11,1,0.75,E,1,Low,1,Sad,60,0,Happy,684,1,High,924
12,1,0.75,E,0,High,0,Happy,40,0,Happy,551,1,High,413
13,1,0.75,E,1,Low,1,Sad,60,0,Happy,546,1,High,874
14,1,0.75,E,1,Low,1,Sad,60,0,Happy,819,1,High,396
15,1,0.75,E,1,Low,1,Sad,60,0,Happy,1245,0,Low,2028
16,1,0.75,UE,0,High,1,Sad,80,1,Sad,696,1,High,980
17,1,0.75,E,0,High,0,Happy,0,1,Sad,468,1,High,429
18,1,0.75,E,0,High,0,Happy,20,0,Happy,1762,1,High,328
19,1,0.75,E,1,Low,1,Sad,80,1,Sad,1785,1,High,761
20,1,0.75,E,0,High,0,Happy,0,0,Happy,491,1,High,938
21,1,0.75,UE,0,High,1,Sad,100,1,Sad,1242,0,Low,1556
22,1,0.75,E,0,High,0,Happy,20,0,Happy,557,1,High,380
23,1,0.75,E,1,Low,1,Sad,60,0,Happy,724,1,High,378
24,1,0.75,E,0,High,0,Happy,40,0,Happy,460,1,High,330
25,1,0.75,UE,1,Low,0,Happy,0,0,Happy,444,1,High,393
26,1,0.75,E,1,Low,1,Sad,80,1,Sad,566,0,Low,1126
27,1,0.75,E,0,High,0,Happy,0,0,Happy,494,1,High,413
28,1,0.75,E,0,High,0,Happy,0,0,Happy,381,1,High,335
29,1,0.75,E,1,Low,1,Sad,60,1,Sad,839,1,High,1083
30,1,0.75,E,1,Low,1,Sad,100,1,Sad,829,1,High,505
31,1,0.75,UE,1,Low,0,Happy,40,0,Happy,443,1,High,347
32,1,0.75,UE,0,High,1,Sad,100,1,Sad,671,1,High,604
33,1,0.75,E,0,High,0,Happy,40,0,Happy,520,1,High,380
34,1,0.75,E,0,High,0,Happy,40,0,Happy,460,1,High,393
35,1,0.75,E,1,Low,1,Sad,80,1,Sad,850,0,Low,1085
36,1,0.75,E,1,Low,1,Sad,60,1,Sad,709,0,Low,553
37,1,0.75,E,0,High,0,Happy,40,0,Happy,555,0,Low,1457
38,1,0.75,UE,0,High,1,Sad,80,1,Sad,1147,0,Low,884
39,1,0.75,E,1,Low,1,Sad,60,0,Happy,531,0,Low,617
40,1,0.75,E,0,High,0,Happy,40,0,Happy,638,1,High,322
41,1,0.75,UE,1,Low,0,Happy,20,0,Happy,361,1,High,282
42,1,0.75,E,0,High,0,Happy,20,0,Happy,364,1,High,395
43,1,0.75,E,1,Low,1,Sad,100,1,Sad,621,0,Low,1259
44,1,0.75,UE,0,High,1,Sad,80,1,Sad,802,1,High,968
45,1,0.75,E,1,Low,1,Sad,100,1,Sad,945,1,High,1020
46,1,0.75,E,0,High,0,Happy,0,0,Happy,416,1,High,379
47,1,0.75,E,1,Low,1,Sad,80,1,Sad,923,0,Low,1002
48,1,0.75,UE,1,Low,0,Happy,20,0,Happy,579,1,High,443
49,1,0.75,E,0,High,0,Happy,0,0,Happy,355,1,High,363
50,1,0.75,E,1,Low,1,Sad,80,1,Sad,948,0,Low,818
51,1,0.75,E,0,High,0,Happy,20,0,Happy,504,1,High,428
52,1,0.75,UE,0,High,1,Sad,60,0,Happy,970,1,High,620
53,1,0.75,UE,1,Low,0,Happy,0,0,Happy,494,1,High,332
54,1,0.75,E,1,Low,1,Sad,100,1,Sad,623,1,High,1157
55,1,0.75,E,1,Low,1,Sad,100,1,Sad,1045,1,High,1548
56,1,0.75,E,0,High,0,Happy,0,0,Happy,596,1,High,349
57,1,0.75,E,1,Low,1,Sad,100,1,Sad,526,1,High,380
58,1,0.75,UE,0,High,1,Sad,100,1,Sad,861,1,High,364
59,1,0.75,E,1,Low,1,Sad,80,1,Sad,500,0,Low,843
60,1,0.75,E,0,High,0,Happy,20,0,Happy,504,1,High,429
61,1,0.75,UE,1,Low,0,Happy,40,0,Happy,813,1,High,347
62,1,0.75,UE,1,Low,0,Happy,20,0,Happy,579,1,High,314
63,1,0.75,E,0,High,0,Happy,20,0,Happy,308,1,High,364
64,1,0.75,E,1,Low,1,Sad,60,0,Happy,1010,0,Low,666
65,1,0.75,E,0,High,0,Happy,40,0,Happy,648,0,Low,843
66,1,0.75,E,1,Low,1,Sad,80,1,Sad,726,1,High,941
67,1,0.75,UE,1,Low,0,Happy,0,0,Happy,442,1,High,361
68,1,0.75,E,0,High,0,Happy,40,0,Happy,555,1,High,301
69,1,0.75,E,0,High,0,Happy,40,0,Happy,362,1,High,364
70,1,0.75,E,0,High,0,Happy,0,0,Happy,326,1,High,362
71,1,0.75,UE,1,Low,0,Happy,0,0,Happy,381,1,High,364
72,1,0.75,E,1,Low,1,Sad,60,0,Happy,676,1,High,634
73,1,0.75,E,0,High,0,Happy,40,0,Happy,536,1,High,442
74,1,0.75,E,1,Low,1,Sad,100,1,Sad,448,1,High,1468
75,1,0.75,E,1,Low,1,Sad,100,1,Sad,404,1,High,363
76,1,0.75,E,0,High,0,Happy,20,0,Happy,463,1,High,362
77,1,0.75,UE,0,High,1,Sad,60,0,Happy,826,1,High,380
78,1,0.75,E,0,High,0,Happy,0,0,Happy,436,1,High,330
79,1,0.75,E,0,High,0,Happy,40,0,Happy,350,1,High,364
80,1,0.75,UE,0,High,1,Sad,60,0,Happy,1348,0,Low,827
81,1,0.75,E,0,High,0,Happy,40,0,Happy,731,1,High,285
82,1,0.75,UE,0,High,1,Sad,80,1,Sad,667,1,High,1565
83,1,0.75,E,0,High,0,Happy,0,0,Happy,478,1,High,378
84,1,0.75,E,0,High,0,Happy,20,0,Happy,491,1,High,332
85,1,0.75,E,1,Low,1,Sad,100,1,Sad,557,1,High,731
86,1,0.75,E,1,Low,1,Sad,100,1,Sad,799,1,High,556
87,1,0.75,UE,1,Low,0,Happy,40,0,Happy,579,1,High,395
88,1,0.75,E,1,Low,1,Sad,80,1,Sad,687,0,Low,1372
89,1,0.75,E,0,High,0,Happy,0,0,Happy,500,1,High,363
90,1,0.75,UE,0,High,1,Sad,60,0,Happy,676,1,High,330
91,1,0.75,E,1,Low,1,Sad,60,0,Happy,1079,0,Low,733
92,1,0.75,E,1,Low,1,Sad,80,1,Sad,1061,0,Low,508
93,1,0.75,E,0,High,0,Happy,20,0,Happy,508,1,High,348
94,1,0.75,E,0,High,0,Happy,20,0,Happy,273,1,High,381
95,1,0.75,UE,1,Low,0,Happy,40,0,Happy,381,1,High,395
96,1,0.75,E,1,Low,1,Sad,80,1,Sad,567,1,High,556
97,2,0.25,E,1,Low,0,Happy,0,0,Happy,558,1,High,348
98,2,0.25,UE,1,Low,1,Sad,80,1,Sad,615,1,High,521
99,2,0.25,E,1,Low,0,Happy,40,0,Happy,552,1,High,348
100,2,0.25,E,1,Low,0,Happy,40,0,Happy,479,1,High,298
101,2,0.25,E,0,High,1,Sad,60,0,Happy,1592,0,Low,1387
102,2,0.25,E,1,Low,0,Happy,20,0,Happy,663,1,High,412
103,2,0.25,E,0,High,1,Sad,80,1,Sad,2226,0,Low,732
104,2,0.25,UE,1,Low,1,Sad,100,1,Sad,576,0,Low,749
105,2,0.25,E,1,Low,0,Happy,20,0,Happy,579,1,High,364
106,2,0.25,UE,1,Low,1,Sad,60,0,Happy,728,0,Low,1211
107,2,0.25,UE,0,High,0,Happy,20,0,Happy,514,1,High,346
108,2,0.25,E,0,High,1,Sad,100,1,Sad,682,0,Low,541
109,2,0.25,E,1,Low,0,Happy,40,0,Happy,504,1,High,332
110,2,0.25,E,0,High,1,Sad,80,1,Sad,543,0,Low,816
111,2,0.25,E,0,High,1,Sad,60,1,Sad,566,0,Low,2012
112,2,0.25,E,1,Low,0,Happy,0,0,Happy,478,1,High,331
113,2,0.25,UE,0,High,0,Happy,40,0,Happy,508,1,High,331
114,2,0.25,E,0,High,1,Sad,80,1,Sad,1051,0,Low,827
115,2,0.25,E,0,High,1,Sad,100,1,Sad,608,1,High,524
116,2,0.25,E,0,High,1,Sad,60,0,Happy,1225,0,Low,700
117,2,0.25,E,1,Low,0,Happy,0,0,Happy,598,1,High,316
118,2,0.25,E,1,Low,0,Happy,20,0,Happy,423,1,High,332
119,2,0.25,UE,0,High,0,Happy,0,0,Happy,337,1,High,349
120,2,0.25,E,0,High,1,Sad,100,1,Sad,638,1,High,937
121,3,0.75,E,0,High,0,Happy,0,0,Happy,418,1,High,315
122,3,0.75,E,0,High,0,Happy,40,0,Happy,538,1,High,300
123,3,0.75,E,0,High,0,Happy,0,0,Happy,378,1,High,316
124,3,0.75,E,1,Low,1,Sad,80,1,Sad,595,1,High,941
125,3,0.75,E,1,Low,1,Sad,60,0,Happy,685,0,Low,1276
126,3,0.75,UE,0,High,1,Sad,100,1,Sad,691,1,High,697
127,3,0.75,E,0,High,0,Happy,20,0,Happy,535,1,High,284
128,3,0.75,E,0,High,0,Happy,40,0,Happy,448,1,High,284
129,3,0.75,UE,1,Low,0,Happy,20,0,Happy,747,1,High,332
130,3,0.75,E,1,Low,1,Sad,100,1,Sad,641,1,High,988
131,3,0.75,E,0,High,0,Happy,40,0,Happy,384,1,High,314
132,3,0.75,UE,1,Low,0,Happy,40,0,Happy,417,1,High,294
133,3,0.75,UE,0,High,1,Sad,60,1,Sad,757,0,Low,841
134,3,0.75,E,1,Low,1,Sad,80,1,Sad,687,0,Low,474
135,3,0.75,E,1,Low,1,Sad,60,0,Happy,502,1,High,458
136,3,0.75,E,1,Low,1,Sad,60,0,Happy,1212,0,Low,698
137,3,0.75,E,1,Low,1,Sad,100,1,Sad,594,1,High,555
138,3,0.75,UE,0,High,1,Sad,80,1,Sad,733,0,Low,652
139,3,0.75,E,0,High,0,Happy,20,0,Happy,673,1,High,316
140,3,0.75,E,1,Low,1,Sad,80,1,Sad,956,1,High,780
141,3,0.75,E,1,Low,1,Sad,100,1,Sad,701,1,High,461
142,3,0.75,E,0,High,0,Happy,0,0,Happy,538,1,High,318
143,3,0.75,UE,1,Low,0,Happy,0,0,Happy,414,1,High,331
144,3,0.75,E,0,High,0,Happy,20,0,Happy,297,1,High,362
145,4,0.25,E,1,Low,0,Happy,0,0,Happy,293,1,High,349
146,4,0.25,E,1,Low,0,Happy,20,0,Happy,360,1,High,299
147,4,0.25,UE,1,Low,1,Sad,80,1,Sad,419,1,High,491
148,4,0.25,UE,0,High,0,Happy,40,0,Happy,405,1,High,329
149,4,0.25,E,0,High,1,Sad,80,1,Sad,604,1,High,492
150,4,0.25,E,0,High,1,Sad,60,0,Happy,746,0,Low,1068
151,4,0.25,E,1,Low,0,Happy,0,0,Happy,410,1,High,268
152,4,0.25,E,0,High,1,Sad,80,1,Sad,551,1,High,348
153,4,0.25,E,1,Low,0,Happy,40,0,Happy,587,1,High,284
154,4,0.25,E,0,High,1,Sad,100,1,Sad,515,1,High,477
155,4,0.25,E,0,High,1,Sad,100,1,Sad,829,1,High,412
156,4,0.25,E,0,High,1,Sad,80,1,Sad,469,1,High,348
157,4,0.25,E,1,Low,0,Happy,20,0,Happy,494,1,High,283
158,4,0.25,UE,0,High,0,Happy,20,0,Happy,361,1,High,317
159,4,0.25,E,0,High,1,Sad,60,0,Happy,917,0,Low,874
160,4,0.25,E,1,Low,0,Happy,40,0,Happy,483,1,High,459
161,4,0.25,E,1,Low,0,Happy,0,0,Happy,318,1,High,253
162,4,0.25,UE,1,Low,1,Sad,60,0,Happy,992,0,Low,458
163,4,0.25,E,0,High,1,Sad,100,1,Sad,801,1,High,396
164,4,0.25,E,0,High,1,Sad,60,1,Sad,1780,0,Low,1505
165,4,0.25,UE,0,High,0,Happy,0,0,Happy,353,1,High,332
166,4,0.25,E,1,Low,0,Happy,40,0,Happy,377,1,High,1310
167,4,0.25,E,1,Low,0,Happy,20,0,Happy,445,1,High,299
168,4,0.25,UE,1,Low,1,Sad,100,1,Sad,647,0,Low,796
169,5,0.75,E,0,High,0,Happy,20,0,Happy,452,1,High,395
170,5,0.75,UE,0,High,1,Sad,60,0,Happy,636,1,High,636
171,5,0.75,E,0,High,0,Happy,0,0,Happy,437,1,High,332
172,5,0.75,E,0,High,0,Happy,40,0,Happy,381,1,High,396
173,5,0.75,E,1,Low,1,Sad,60,1,Sad,973,0,Low,551
174,5,0.75,E,1,Low,1,Sad,80,1,Sad,555,1,High,428
175,5,0.75,E,1,Low,1,Sad,60,1,Sad,741,1,High,1321
176,5,0.75,E,0,High,0,Happy,20,0,Happy,440,1,High,300
177,5,0.75,E,1,Low,1,Sad,100,1,Sad,535,1,High,471
178,5,0.75,UE,1,Low,0,Happy,0,0,Happy,411,1,High,331
179,5,0.75,E,0,High,0,Happy,20,0,Happy,641,1,High,331
180,5,0.75,UE,1,Low,0,Happy,40,0,Happy,384,1,High,347
181,5,0.75,E,1,Low,1,Sad,60,0,Happy,1487,0,Low,1662
182,5,0.75,E,0,High,0,Happy,40,0,Happy,652,1,High,353
183,5,0.75,E,1,Low,1,Sad,80,1,Sad,816,1,High,531
184,5,0.75,E,1,Low,1,Sad,80,1,Sad,462,1,High,410
185,5,0.75,UE,0,High,1,Sad,80,1,Sad,612,1,High,444
186,5,0.75,UE,0,High,1,Sad,100,1,Sad,488,1,High,413
187,5,0.75,E,0,High,0,Happy,0,0,Happy,586,1,High,315
188,5,0.75,E,1,Low,1,Sad,100,1,Sad,727,0,Low,764
189,5,0.75,UE,1,Low,0,Happy,20,0,Happy,338,1,High,320
190,5,0.75,E,0,High,0,Happy,0,0,Happy,328,1,High,282
191,5,0.75,E,1,Low,1,Sad,100,1,Sad,660,0,Low,547
192,5,0.75,E,0,High,0,Happy,40,0,Happy,405,1,High,314
