Trial_N,Block_N,Contingency,Expectedness,Cue_idx,Cue_name,Outcome_idx,Outcome_name,Outcome_p_sad,Response_idx,Response_name,Response_RT,Confidence_idx,Confidence_name,Confidence_RT
1,1,0.75,E,1,Low,1,Sad,80,1,Sad,624.600000000559,1,High,310.799999999814
2,1,0.75,E,1,Low,1,Sad,100,1,Sad,483.700000000186,1,High,161.300000000745
3,1,0.75,E,1,Low,1,Sad,80,1,Sad,465.200000000186,1,High,183.800000000745
4,1,0.75,E,0,High,0,Happy,20,0,Happy,547,1,High,181.200000000186
5,1,0.75,E,0,High,0,Happy,0,0,Happy,360.899999999441,1,High,158.399999999441
6,1,0.75,UE,0,High,1,Sad,100,1,Sad,385.200000000186,1,High,168.299999999814
7,1,0.75,E,1,Low,1,Sad,60,0,Happy,557.299999999814,1,High,145.400000000373
8,1,0.75,E,0,High,0,Happy,20,0,Happy,431.200000000186,1,High,140.700000000186
9,1,0.75,UE,1,Low,0,Happy,20,0,Happy,346.199999999255,1,High,175.400000000373
10,1,0.75,E,1,Low,1,Sad,100,1,Sad,381.900000000373,1,High,175.700000000186
11,1,0.75,E,1,Low,1,Sad,60,0,Happy,353.899999999441,1,High,143.699999999255
12,1,0.75,E,0,High,0,Happy,40,0,Happy,427.600000000559,1,High,122.100000000559
13,1,0.75,E,1,Low,1,Sad,60,0,Happy,423,1,High,120.200000000186
14,1,0.75,E,1,Low,1,Sad,60,0,Happy,617,1,High,72.6999999992549
15,1,0.75,E,1,Low,1,Sad,60,0,Happy,642.5,1,High,112.600000000559
16,1,0.75,UE,0,High,1,Sad,80,1,Sad,749,1,High,113.599999999627
17,1,0.75,E,0,High,0,Happy,0,0,Happy,345.600000000559,1,High,113.700000000186
18,1,0.75,E,0,High,0,Happy,20,0,Happy,373.099999999627,1,High,131.399999999441
19,1,0.75,E,1,Low,1,Sad,80,1,Sad,407.800000000745,1,High,125.299999999814
20,1,0.75,E,0,High,0,Happy,0,0,Happy,346.200000000186,1,High,80.8999999994412
21,1,0.75,UE,0,High,1,Sad,100,1,Sad,364.399999999441,1,High,108.5
22,1,0.75,E,0,High,0,Happy,20,0,Happy,360.400000000373,1,High,129.599999999627
23,1,0.75,E,1,Low,1,Sad,60,1,Sad,347.5,1,High,128.200000000186
24,1,0.75,E,0,High,0,Happy,40,0,Happy,338.199999999255,1,High,176.900000000373
25,1,0.75,UE,1,Low,0,Happy,0,0,Happy,308.099999999627,1,High,122.400000000373
26,1,0.75,E,1,Low,1,Sad,80,1,Sad,488.599999999627,1,High,124.099999999627
27,1,0.75,E,0,High,0,Happy,0,0,Happy,447.5,1,High,147.299999999814
28,1,0.75,E,0,High,0,Happy,0,0,Happy,494.400000000373,1,High,119.799999999814
29,1,0.75,E,1,Low,1,Sad,60,1,Sad,364.400000000373,1,High,169.5
30,1,0.75,E,1,Low,1,Sad,100,1,Sad,453.699999999255,1,High,143.799999999814
31,1,0.75,UE,1,Low,0,Happy,40,0,Happy,415.100000000559,1,High,125.899999999441
32,1,0.75,UE,0,High,1,Sad,100,1,Sad,398.899999999441,1,High,121.599999999627
33,1,0.75,E,0,High,0,Happy,40,0,Happy,298.600000000559,1,High,146
34,1,0.75,E,0,High,0,Happy,40,0,Happy,328.300000000745,1,High,108.599999999627
35,1,0.75,E,1,Low,1,Sad,80,1,Sad,292.600000000559,1,High,144
36,1,0.75,E,1,Low,1,Sad,60,1,Sad,537.200000000186,1,High,131.299999999814
37,1,0.75,E,0,High,0,Happy,40,0,Happy,438.899999999441,1,High,85.8999999994412
38,1,0.75,UE,0,High,1,Sad,80,1,Sad,365.400000000373,1,High,164.699999999255
39,1,0.75,E,1,Low,1,Sad,60,1,Sad,384.700000000186,1,High,218.5
40,1,0.75,E,0,High,0,Happy,40,0,Happy,393.899999999441,1,High,219.599999999627
41,1,0.75,UE,1,Low,0,Happy,20,0,Happy,314.099999999627,1,High,171.400000000373
42,1,0.75,E,0,High,0,Happy,20,0,Happy,346.5,1,High,202.599999999627
43,1,0.75,E,1,Low,1,Sad,100,1,Sad,349.799999999814,1,High,187.399999999441
44,1,0.75,UE,0,High,1,Sad,80,1,Sad,411.400000000373,1,High,197.800000000745
45,1,0.75,E,1,Low,1,Sad,100,1,Sad,347.899999999441,1,High,203.299999999814
46,1,0.75,E,0,High,0,Happy,0,0,Happy,318.299999999814,1,High,166.400000000373
47,1,0.75,E,1,Low,1,Sad,80,1,Sad,365.599999999627,1,High,178.599999999627
48,1,0.75,UE,1,Low,0,Happy,20,0,Happy,370.699999999255,1,High,294.800000000745
49,1,0.75,E,0,High,0,Happy,0,0,Happy,361.5,1,High,222.5
50,1,0.75,E,1,Low,1,Sad,80,1,Sad,359.5,1,High,212.400000000373
51,1,0.75,E,0,High,0,Happy,20,0,Happy,305.799999999814,1,High,149.600000000559
52,1,0.75,UE,0,High,1,Sad,60,1,Sad,523.200000000186,1,High,168.600000000559
53,1,0.75,UE,1,Low,0,Happy,0,0,Happy,363.600000000559,1,High,134.900000000373
54,1,0.75,E,1,Low,1,Sad,100,1,Sad,431.799999999814,1,High,209.200000000186
55,1,0.75,E,1,Low,1,Sad,100,1,Sad,404,1,High,195.799999999814
56,1,0.75,E,0,High,0,Happy,0,0,Happy,324.5,1,High,167.900000000373
57,1,0.75,E,1,Low,1,Sad,100,1,Sad,359.5,1,High,177.400000000373
58,1,0.75,UE,0,High,1,Sad,100,1,Sad,398.5,1,High,174.899999999441
59,1,0.75,E,1,Low,1,Sad,80,1,Sad,487.099999999627,1,High,153.199999999255
60,1,0.75,E,0,High,0,Happy,20,0,Happy,297,1,High,165.5
61,1,0.75,UE,1,Low,0,Happy,40,0,Happy,419.100000000559,1,High,185.599999999627
62,1,0.75,UE,1,Low,0,Happy,20,0,Happy,327.899999999441,1,High,134.200000000186
63,1,0.75,E,0,High,0,Happy,20,0,Happy,301.200000000186,1,High,155.5
64,1,0.75,E,1,Low,1,Sad,60,0,Happy,562.800000000745,1,High,592.400000000373
65,1,0.75,E,0,High,0,Happy,40,0,Happy,460.899999999441,1,High,207.900000000373
66,1,0.75,E,1,Low,1,Sad,80,1,Sad,418.299999999814,1,High,180.099999999627
67,1,0.75,UE,1,Low,0,Happy,0,0,Happy,352.400000000373,1,High,162.399999999441
68,1,0.75,E,0,High,0,Happy,40,0,Happy,568.900000000373,1,High,287.399999999441
69,1,0.75,E,0,High,0,Happy,40,0,Happy,368.299999999814,1,High,178.299999999814
70,1,0.75,E,0,High,0,Happy,0,0,Happy,288.299999999814,1,High,388.199999999255
71,1,0.75,UE,1,Low,0,Happy,0,0,Happy,328.299999999814,1,High,144.299999999814
72,1,0.75,E,1,Low,1,Sad,60,0,Happy,609.299999999814,1,High,153.200000000186
73,1,0.75,E,0,High,0,Happy,40,0,Happy,405.400000000373,1,High,156.299999999814
74,1,0.75,E,1,Low,1,Sad,100,1,Sad,539.600000000559,1,High,139.900000000373
75,1,0.75,E,1,Low,1,Sad,100,1,Sad,439.799999999814,1,High,143.900000000373
76,1,0.75,E,0,High,0,Happy,20,0,Happy,301.799999999814,1,High,165.299999999814
77,1,0.75,UE,0,High,1,Sad,60,0,Happy,360.799999999814,1,High,152.299999999814
78,1,0.75,E,0,High,0,Happy,0,0,Happy,304.400000000373,1,High,145.5
79,1,0.75,E,0,High,0,Happy,40,0,Happy,347.900000000373,1,High,157.700000000186
80,1,0.75,UE,0,High,1,Sad,60,1,Sad,500.5,1,High,128.900000000373
81,1,0.75,E,0,High,0,Happy,40,0,Happy,636.700000000186,1,High,89.2000000001863
82,1,0.75,UE,0,High,1,Sad,80,1,Sad,535.099999999627,1,High,114.900000000373
83,1,0.75,E,0,High,0,Happy,0,0,Happy,376.399999999441,1,High,131.400000000373
84,1,0.75,E,0,High,0,Happy,20,0,Happy,348.900000000373,1,High,108.700000000186
85,1,0.75,E,1,Low,1,Sad,100,1,Sad,359.5,1,High,150.800000000745
86,1,0.75,E,1,Low,1,Sad,100,1,Sad,410.799999999814,1,High,144.5
87,1,0.75,UE,1,Low,0,Happy,40,0,Happy,371,1,High,140.899999999441
88,1,0.75,E,1,Low,1,Sad,80,1,Sad,474.099999999627,1,High,145.700000000186
89,1,0.75,E,0,High,0,Happy,0,0,Happy,326,1,High,209.299999999814
90,1,0.75,UE,0,High,1,Sad,60,1,Sad,472.799999999814,1,High,113.400000000373
91,1,0.75,E,1,Low,1,Sad,60,0,Happy,830.799999999814,1,High,96.4000000003725
92,1,0.75,E,1,Low,1,Sad,80,1,Sad,424.299999999814,1,High,140.400000000373
93,1,0.75,E,0,High,0,Happy,20,0,Happy,397.400000000373,1,High,130.100000000559
94,1,0.75,E,0,High,0,Happy,20,0,Happy,324.699999999255,1,High,211.200000000186
95,1,0.75,UE,1,Low,0,Happy,40,0,Happy,357.5,1,High,183.799999999814
96,1,0.75,E,1,Low,1,Sad,80,1,Sad,354.299999999814,1,High,146.200000000186
97,2,0.25,E,1,Low,0,Happy,0,0,Happy,342.099999999627,1,High,116.200000000186
98,2,0.25,UE,1,Low,1,Sad,80,1,Sad,351.899999999441,1,High,161.099999999627
99,2,0.25,E,1,Low,0,Happy,40,0,Happy,331.299999999814,1,High,139.900000000373
100,2,0.25,E,1,Low,0,Happy,40,0,Happy,378.700000000186,1,High,115.599999999627
101,2,0.25,E,0,High,1,Sad,60,1,Sad,647.5,1,High,112.400000000373
102,2,0.25,E,1,Low,0,Happy,20,0,Happy,332.300000000745,1,High,141.299999999814
103,2,0.25,E,0,High,1,Sad,80,1,Sad,425.899999999441,1,High,149.299999999814
104,2,0.25,UE,1,Low,1,Sad,100,1,Sad,527.799999999814,1,High,152.599999999627
105,2,0.25,E,1,Low,0,Happy,20,0,Happy,298.600000000559,1,High,158.899999999441
106,2,0.25,UE,1,Low,1,Sad,60,0,Happy,693.799999999814,1,High,126.099999999627
107,2,0.25,UE,0,High,0,Happy,20,0,Happy,361,1,High,191.700000000186
108,2,0.25,E,0,High,1,Sad,100,1,Sad,395.400000000373,1,High,177.600000000559
109,2,0.25,E,1,Low,0,Happy,40,0,Happy,439.399999999441,1,High,134.300000000745
110,2,0.25,E,0,High,1,Sad,80,1,Sad,338.899999999441,1,High,181.200000000186
111,2,0.25,E,0,High,1,Sad,60,0,Happy,629.299999999814,1,High,114.400000000373
112,2,0.25,E,1,Low,0,Happy,0,0,Happy,327.099999999627,1,High,238.800000000745
113,2,0.25,UE,0,High,0,Happy,40,0,Happy,454.5,1,High,154.400000000373
114,2,0.25,E,0,High,1,Sad,80,1,Sad,440.900000000373,1,High,185.200000000186
115,2,0.25,E,0,High,1,Sad,100,1,Sad,420.700000000186,1,High,152.600000000559
116,2,0.25,E,0,High,1,Sad,60,0,Happy,592.799999999814,1,High,120.399999999441
117,2,0.25,E,1,Low,0,Happy,0,0,Happy,367.100000000559,1,High,132.599999999627
118,2,0.25,E,1,Low,0,Happy,20,0,Happy,324.400000000373,1,High,154.900000000373
119,2,0.25,UE,0,High,0,Happy,0,0,Happy,332.700000000186,1,High,136.100000000559
120,2,0.25,E,0,High,1,Sad,100,1,Sad,397,1,High,170.100000000559
121,3,0.75,E,0,High,0,Happy,0,0,Happy,353.700000000186,1,High,231
122,3,0.75,E,0,High,0,Happy,40,0,Happy,442.5,1,High,142.700000000186
123,3,0.75,E,0,High,0,Happy,0,0,Happy,326.5,1,High,162.900000000373
124,3,0.75,E,1,Low,1,Sad,80,1,Sad,372.200000000186,1,High,188.599999999627
125,3,0.75,E,1,Low,1,Sad,60,1,Sad,568.699999999255,1,High,160.900000000373
126,3,0.75,UE,0,High,1,Sad,100,1,Sad,510.5,1,High,219.900000000373
127,3,0.75,E,0,High,0,Happy,20,0,Happy,305.899999999441,1,High,169.300000000745
128,3,0.75,E,0,High,0,Happy,40,0,Happy,284.5,1,High,158.700000000186
129,3,0.75,UE,1,Low,0,Happy,20,0,Happy,319,1,High,173.100000000559
130,3,0.75,E,1,Low,1,Sad,100,1,Sad,480.799999999814,1,High,210.400000000373
131,3,0.75,E,0,High,0,Happy,40,0,Happy,345.5,1,High,183.899999999441
132,3,0.75,UE,1,Low,0,Happy,40,0,Happy,382.800000000745,1,High,181.5
133,3,0.75,UE,0,High,1,Sad,60,0,Happy,474.900000000373,1,High,128.299999999814
134,3,0.75,E,1,Low,1,Sad,80,1,Sad,327.399999999441,1,High,179.5
135,3,0.75,E,1,Low,1,Sad,60,1,Sad,438.900000000373,1,High,189.100000000559
136,3,0.75,E,1,Low,1,Sad,60,1,Sad,435.299999999814,1,High,206.200000000186
137,3,0.75,E,1,Low,1,Sad,100,1,Sad,475.799999999814,1,High,182.899999999441
138,3,0.75,UE,0,High,1,Sad,80,1,Sad,370.700000000186,1,High,203
139,3,0.75,E,0,High,0,Happy,20,0,Happy,475.099999999627,1,High,190
140,3,0.75,E,1,Low,1,Sad,80,1,Sad,350,1,High,210.199999999255
141,3,0.75,E,1,Low,1,Sad,100,1,Sad,381.200000000186,1,High,194.099999999627
142,3,0.75,E,0,High,0,Happy,0,0,Happy,290.5,1,High,201.799999999814
143,3,0.75,UE,1,Low,0,Happy,0,0,Happy,477.5,1,High,207.099999999627
144,3,0.75,E,0,High,0,Happy,20,0,Happy,260,1,High,172.200000000186
145,4,0.25,E,1,Low,0,Happy,0,0,Happy,271.5,1,High,152.400000000373
146,4,0.25,E,1,Low,0,Happy,20,0,Happy,282.700000000186,1,High,166
147,4,0.25,UE,1,Low,1,Sad,80,1,Sad,360.5,1,High,208
148,4,0.25,UE,0,High,0,Happy,40,0,Happy,653.400000000373,1,High,148.299999999814
149,4,0.25,E,0,High,1,Sad,80,1,Sad,393.799999999814,1,High,202.799999999814
150,4,0.25,E,0,High,1,Sad,60,0,Happy,682.599999999627,1,High,134.400000000373
151,4,0.25,E,1,Low,0,Happy,0,0,Happy,333.900000000373,1,High,235.200000000186
152,4,0.25,E,0,High,1,Sad,80,1,Sad,440.100000000559,1,High,210.5
153,4,0.25,E,1,Low,0,Happy,40,0,Happy,577.600000000559,1,High,177.5
154,4,0.25,E,0,High,1,Sad,100,1,Sad,376.700000000186,1,High,103.700000000186
155,4,0.25,E,0,High,1,Sad,100,1,Sad,445.200000000186,1,High,188
156,4,0.25,E,0,High,1,Sad,80,1,Sad,376.299999999814,1,High,210.300000000745
157,4,0.25,E,1,Low,0,Happy,20,0,Happy,358.5,1,High,184.200000000186
158,4,0.25,UE,0,High,0,Happy,20,0,Happy,283.600000000559,1,High,149.599999999627
159,4,0.25,E,0,High,1,Sad,60,0,Happy,465,1,High,149.900000000373
160,4,0.25,E,1,Low,0,Happy,40,0,Happy,415.100000000559,1,High,199.900000000373
161,4,0.25,E,1,Low,0,Happy,0,0,Happy,289.700000000186,1,High,169.200000000186
162,4,0.25,UE,1,Low,1,Sad,60,1,Sad,495.200000000186,1,High,181.299999999814
163,4,0.25,E,0,High,1,Sad,100,1,Sad,425.800000000745,1,High,189.799999999814
164,4,0.25,E,0,High,1,Sad,60,0,Happy,452.600000000559,1,High,132
165,4,0.25,UE,0,High,0,Happy,0,0,Happy,281.099999999627,1,High,172
166,4,0.25,E,1,Low,0,Happy,40,0,Happy,408.899999999441,1,High,135.200000000186
167,4,0.25,E,1,Low,0,Happy,20,0,Happy,361.5,1,High,171.100000000559
168,4,0.25,UE,1,Low,1,Sad,100,1,Sad,408.5,1,High,188.299999999814
169,5,0.75,E,0,High,0,Happy,20,0,Happy,370,1,High,143.200000000186
170,5,0.75,UE,0,High,1,Sad,60,0,Happy,510.699999999255,1,High,189.099999999627
171,5,0.75,E,0,High,0,Happy,0,0,Happy,309.700000000186,1,High,163.199999999255
172,5,0.75,E,0,High,0,Happy,40,0,Happy,522.099999999627,1,High,116.700000000186
173,5,0.75,E,1,Low,1,Sad,60,1,Sad,461.400000000373,1,High,213.700000000186
174,5,0.75,E,1,Low,1,Sad,80,1,Sad,449,1,High,184.400000000373
175,5,0.75,E,1,Low,1,Sad,60,1,Sad,439.099999999627,1,High,182.5
176,5,0.75,E,0,High,0,Happy,20,0,Happy,371.5,1,High,129.099999999627
177,5,0.75,E,1,Low,1,Sad,100,0,Happy,336.900000000373,0,Low,1404.70000000019
178,5,0.75,UE,1,Low,0,Happy,0,0,Happy,328.599999999627,1,High,223.300000000745
179,5,0.75,E,0,High,0,Happy,20,0,Happy,419.799999999814,1,High,174.600000000559
180,5,0.75,UE,1,Low,0,Happy,40,0,Happy,387.200000000186,1,High,161.399999999441
181,5,0.75,E,1,Low,1,Sad,60,0,Happy,1244.59999999963,1,High,162.299999999814
182,5,0.75,E,0,High,0,Happy,40,0,Happy,469.900000000373,1,High,147.400000000373
183,5,0.75,E,1,Low,1,Sad,80,1,Sad,426.699999999255,1,High,166.600000000559
184,5,0.75,E,1,Low,1,Sad,80,1,Sad,422.400000000373,1,High,148.599999999627
185,5,0.75,UE,0,High,1,Sad,80,1,Sad,401,1,High,152.099999999627
186,5,0.75,UE,0,High,1,Sad,100,1,Sad,374.400000000373,1,High,169.5
187,5,0.75,E,0,High,0,Happy,0,0,Happy,411.299999999814,1,High,123.800000000745
188,5,0.75,E,1,Low,1,Sad,100,1,Sad,316.099999999627,1,High,218.799999999814
189,5,0.75,UE,1,Low,0,Happy,20,0,Happy,368.400000000373,1,High,131.5
190,5,0.75,E,0,High,0,Happy,0,0,Happy,353.299999999814,1,High,122.099999999627
191,5,0.75,E,1,Low,1,Sad,100,1,Sad,344.700000000186,1,High,189.800000000745
192,5,0.75,E,0,High,0,Happy,40,0,Happy,368.799999999814,1,High,204.099999999627
