Trial_N,Block_N,Contingency,Expectedness,Cue_idx,Cue_name,Outcome_idx,Outcome_name,Outcome_p_sad,Response_idx,Response_name,Response_RT,Confidence_idx,Confidence_name,Confidence_RT
1,1,0.75,E,1,Low,1,Sad,80,1,Sad,512,1,High,580
2,1,0.75,E,1,Low,1,Sad,100,1,Sad,343,1,High,229
3,1,0.75,E,1,Low,1,Sad,80,1,Sad,327,1,High,230
4,1,0.75,E,0,High,0,Happy,20,0,Happy,406,1,High,255
5,1,0.75,E,0,High,0,Happy,0,0,Happy,391,1,High,245
6,1,0.75,UE,0,High,1,Sad,100,1,Sad,382,1,High,189
7,1,0.75,E,1,Low,1,Sad,60,1,Sad,408,1,High,462
8,1,0.75,E,0,High,0,Happy,20,0,Happy,374,1,High,189
9,1,0.75,UE,1,Low,0,Happy,20,0,Happy,329,1,High,270
10,1,0.75,E,1,Low,1,Sad,100,1,Sad,439,1,High,214
11,1,0.75,E,1,Low,1,Sad,60,1,Sad,661,1,High,253
12,1,0.75,E,0,High,0,Happy,40,0,Happy,694,0,Low,246
13,1,0.75,E,1,Low,1,Sad,60,1,Sad,1235,1,High,349
14,1,0.75,E,1,Low,1,Sad,60,1,Sad,359,1,High,127
15,1,0.75,E,1,Low,1,Sad,60,1,Sad,363,1,High,125
16,1,0.75,UE,0,High,1,Sad,80,1,Sad,385,1,High,174
17,1,0.75,E,0,High,0,Happy,0,0,Happy,455,1,High,183
18,1,0.75,E,0,High,0,Happy,20,0,Happy,271,1,High,221
19,1,0.75,E,1,Low,1,Sad,80,1,Sad,369,1,High,166
20,1,0.75,E,0,High,0,Happy,0,0,Happy,307,1,High,181
21,1,0.75,UE,0,High,1,Sad,100,1,Sad,335,1,High,173
22,1,0.75,E,0,High,0,Happy,20,0,Happy,328,1,High,206
23,1,0.75,E,1,Low,1,Sad,60,1,Sad,459,1,High,182
24,1,0.75,E,0,High,0,Happy,40,0,Happy,385,1,High,173
25,1,0.75,UE,1,Low,0,Happy,0,0,Happy,417,1,High,189
26,1,0.75,E,1,Low,1,Sad,80,1,Sad,371,1,High,159
27,1,0.75,E,0,High,0,Happy,0,0,Happy,341,1,High,165
28,1,0.75,E,0,High,0,Happy,0,0,Happy,321,1,High,166
29,1,0.75,E,1,Low,1,Sad,60,1,Sad,350,1,High,149
30,1,0.75,E,1,Low,1,Sad,100,1,Sad,264,1,High,149
31,1,0.75,UE,1,Low,0,Happy,40,1,Sad,746,0,Low,461
32,1,0.75,UE,0,High,1,Sad,100,1,Sad,438,1,High,150
33,1,0.75,E,0,High,0,Happy,40,0,Happy,379,1,High,357
34,1,0.75,E,0,High,0,Happy,40,0,Happy,317,1,High,709
35,1,0.75,E,1,Low,1,Sad,80,1,Sad,358,1,High,151
36,1,0.75,E,1,Low,1,Sad,60,1,Sad,386,1,High,86
37,1,0.75,E,0,High,0,Happy,40,0,Happy,785,0,Low,245
38,1,0.75,UE,0,High,1,Sad,80,1,Sad,649,1,High,149
39,1,0.75,E,1,Low,1,Sad,60,1,Sad,340,1,High,133
40,1,0.75,E,0,High,0,Happy,40,1,Sad,316,0,Low,461
41,1,0.75,UE,1,Low,0,Happy,20,0,Happy,587,1,High,181
42,1,0.75,E,0,High,0,Happy,20,0,Happy,264,1,High,220
43,1,0.75,E,1,Low,1,Sad,100,1,Sad,382,1,High,149
44,1,0.75,UE,0,High,1,Sad,80,1,Sad,328,1,High,134
45,1,0.75,E,1,Low,1,Sad,100,1,Sad,309,1,High,149
46,1,0.75,E,0,High,0,Happy,0,0,Happy,343,1,High,172
47,1,0.75,E,1,Low,1,Sad,80,1,Sad,331,1,High,133
48,1,0.75,UE,1,Low,0,Happy,20,0,Happy,339,1,High,174
49,1,0.75,E,0,High,0,Happy,0,0,Happy,342,1,High,166
50,1,0.75,E,1,Low,1,Sad,80,1,Sad,327,1,High,95
51,1,0.75,E,0,High,0,Happy,20,0,Happy,242,1,High,125
52,1,0.75,UE,0,High,1,Sad,60,1,Sad,387,1,High,166
53,1,0.75,UE,1,Low,0,Happy,0,0,Happy,295,1,High,141
54,1,0.75,E,1,Low,1,Sad,100,1,Sad,367,1,High,149
55,1,0.75,E,1,Low,1,Sad,100,1,Sad,301,1,High,93
56,1,0.75,E,0,High,0,Happy,0,0,Happy,279,1,High,172
57,1,0.75,E,1,Low,1,Sad,100,1,Sad,306,1,High,182
58,1,0.75,UE,0,High,1,Sad,100,1,Sad,304,1,High,149
59,1,0.75,E,1,Low,1,Sad,80,1,Sad,293,1,High,93
60,1,0.75,E,0,High,0,Happy,20,0,Happy,337,1,High,149
61,1,0.75,UE,1,Low,0,Happy,40,0,Happy,454,1,High,197
62,1,0.75,UE,1,Low,0,Happy,20,0,Happy,477,1,High,150
63,1,0.75,E,0,High,0,Happy,20,0,Happy,319,1,High,166
64,1,0.75,E,1,Low,1,Sad,60,1,Sad,494,1,High,262
65,1,0.75,E,0,High,0,Happy,40,0,Happy,806,0,Low,438
66,1,0.75,E,1,Low,1,Sad,80,1,Sad,529,1,High,156
67,1,0.75,UE,1,Low,0,Happy,0,0,Happy,387,1,High,141
68,1,0.75,E,0,High,0,Happy,40,0,Happy,776,0,Low,598
69,1,0.75,E,0,High,0,Happy,40,0,Happy,498,0,Low,238
70,1,0.75,E,0,High,0,Happy,0,0,Happy,509,1,High,183
71,1,0.75,UE,1,Low,0,Happy,0,0,Happy,348,1,High,165
72,1,0.75,E,1,Low,1,Sad,60,1,Sad,485,1,High,142
73,1,0.75,E,0,High,0,Happy,40,0,Happy,828,0,Low,262
74,1,0.75,E,1,Low,1,Sad,100,1,Sad,362,1,High,134
75,1,0.75,E,1,Low,1,Sad,100,1,Sad,349,1,High,132
76,1,0.75,E,0,High,0,Happy,20,0,Happy,358,1,High,132
77,1,0.75,UE,0,High,1,Sad,60,1,Sad,710,0,Low,638
78,1,0.75,E,0,High,0,Happy,0,0,Happy,385,1,High,149
79,1,0.75,E,0,High,0,Happy,40,0,Happy,615,1,High,517
80,1,0.75,UE,0,High,1,Sad,60,0,Happy,696,0,Low,270
81,1,0.75,E,0,High,0,Happy,40,1,Sad,556,0,Low,662
82,1,0.75,UE,0,High,1,Sad,80,1,Sad,396,1,High,245
83,1,0.75,E,0,High,0,Happy,0,0,Happy,367,1,High,149
84,1,0.75,E,0,High,0,Happy,20,0,Happy,344,1,High,151
85,1,0.75,E,1,Low,1,Sad,100,1,Sad,439,1,High,158
86,1,0.75,E,1,Low,1,Sad,100,1,Sad,268,1,High,140
87,1,0.75,UE,1,Low,0,Happy,40,0,Happy,582,0,Low,372
88,1,0.75,E,1,Low,1,Sad,80,0,Happy,461,0,Low,998
89,1,0.75,E,0,High,0,Happy,0,0,Happy,408,1,High,142
90,1,0.75,UE,0,High,1,Sad,60,1,Sad,864,1,High,165
91,1,0.75,E,1,Low,1,Sad,60,1,Sad,376,1,High,85
92,1,0.75,E,1,Low,1,Sad,80,1,Sad,362,1,High,93
93,1,0.75,E,0,High,0,Happy,20,0,Happy,335,1,High,157
94,1,0.75,E,0,High,0,Happy,20,0,Happy,353,1,High,149
95,1,0.75,UE,1,Low,0,Happy,40,0,Happy,524,0,Low,278
96,1,0.75,E,1,Low,1,Sad,80,1,Sad,581,1,High,173
97,2,0.25,E,1,Low,0,Happy,0,0,Happy,349,1,High,141
98,2,0.25,UE,1,Low,1,Sad,80,1,Sad,357,1,High,141
99,2,0.25,E,1,Low,0,Happy,40,0,Happy,568,0,Low,213
100,2,0.25,E,1,Low,0,Happy,40,0,Happy,747,0,Low,589
101,2,0.25,E,0,High,1,Sad,60,1,Sad,847,1,High,173
102,2,0.25,E,1,Low,0,Happy,20,0,Happy,358,1,High,125
103,2,0.25,E,0,High,1,Sad,80,1,Sad,464,1,High,133
104,2,0.25,UE,1,Low,1,Sad,100,1,Sad,335,1,High,136
105,2,0.25,E,1,Low,0,Happy,20,0,Happy,377,1,High,157
106,2,0.25,UE,1,Low,1,Sad,60,0,Happy,614,0,Low,248
107,2,0.25,UE,0,High,0,Happy,20,0,Happy,804,1,High,182
108,2,0.25,E,0,High,1,Sad,100,1,Sad,345,1,High,141
109,2,0.25,E,1,Low,0,Happy,40,0,Happy,622,0,Low,237
110,2,0.25,E,0,High,1,Sad,80,1,Sad,380,1,High,166
111,2,0.25,E,0,High,1,Sad,60,1,Sad,593,1,High,254
112,2,0.25,E,1,Low,0,Happy,0,0,Happy,368,1,High,140
113,2,0.25,UE,0,High,0,Happy,40,0,Happy,351,1,High,85
114,2,0.25,E,0,High,1,Sad,80,1,Sad,449,1,High,109
115,2,0.25,E,0,High,1,Sad,100,1,Sad,344,1,High,110
116,2,0.25,E,0,High,1,Sad,60,1,Sad,280,1,High,101
117,2,0.25,E,1,Low,0,Happy,0,0,Happy,324,1,High,85
118,2,0.25,E,1,Low,0,Happy,20,0,Happy,224,1,High,158
119,2,0.25,UE,0,High,0,Happy,0,0,Happy,263,1,High,86
120,2,0.25,E,0,High,1,Sad,100,1,Sad,312,1,High,93
121,3,0.75,E,0,High,0,Happy,0,0,Happy,317,1,High,85
122,3,0.75,E,0,High,0,Happy,40,0,Happy,463,0,Low,317
123,3,0.75,E,0,High,0,Happy,0,0,Happy,323,1,High,102
124,3,0.75,E,1,Low,1,Sad,80,1,Sad,306,1,High,110
125,3,0.75,E,1,Low,1,Sad,60,1,Sad,357,1,High,102
126,3,0.75,UE,0,High,1,Sad,100,1,Sad,391,1,High,117
127,3,0.75,E,0,High,0,Happy,20,0,Happy,293,1,High,102
128,3,0.75,E,0,High,0,Happy,40,0,Happy,496,0,Low,253
129,3,0.75,UE,1,Low,0,Happy,20,0,Happy,347,1,High,229
130,3,0.75,E,1,Low,1,Sad,100,1,Sad,294,1,High,158
131,3,0.75,E,0,High,0,Happy,40,1,Sad,1076,0,Low,262
132,3,0.75,UE,1,Low,0,Happy,40,0,Happy,583,0,Low,238
133,3,0.75,UE,0,High,1,Sad,60,1,Sad,660,1,High,116
134,3,0.75,E,1,Low,1,Sad,80,1,Sad,324,1,High,92
135,3,0.75,E,1,Low,1,Sad,60,1,Sad,371,1,High,86
136,3,0.75,E,1,Low,1,Sad,60,1,Sad,234,1,High,60
137,3,0.75,E,1,Low,1,Sad,100,1,Sad,302,1,High,149
138,3,0.75,UE,0,High,1,Sad,80,1,Sad,340,1,High,142
139,3,0.75,E,0,High,0,Happy,20,0,Happy,212,1,High,150
140,3,0.75,E,1,Low,1,Sad,80,1,Sad,258,1,High,86
141,3,0.75,E,1,Low,1,Sad,100,1,Sad,193,1,High,78
142,3,0.75,E,0,High,0,Happy,0,0,Happy,340,1,High,102
143,3,0.75,UE,1,Low,0,Happy,0,0,Happy,322,1,High,110
144,3,0.75,E,0,High,0,Happy,20,0,Happy,321,1,High,150
145,4,0.25,E,1,Low,0,Happy,0,0,Happy,223,1,High,84
146,4,0.25,E,1,Low,0,Happy,20,0,Happy,268,1,High,93
147,4,0.25,UE,1,Low,1,Sad,80,1,Sad,258,1,High,142
148,4,0.25,UE,0,High,0,Happy,40,0,Happy,560,0,Low,190
149,4,0.25,E,0,High,1,Sad,80,1,Sad,463,1,High,149
150,4,0.25,E,0,High,1,Sad,60,1,Sad,313,1,High,101
151,4,0.25,E,1,Low,0,Happy,0,0,Happy,311,1,High,78
152,4,0.25,E,0,High,1,Sad,80,1,Sad,289,1,High,118
153,4,0.25,E,1,Low,0,Happy,40,0,Happy,594,0,Low,158
154,4,0.25,E,0,High,1,Sad,100,1,Sad,335,1,High,85
155,4,0.25,E,0,High,1,Sad,100,1,Sad,369,1,High,101
156,4,0.25,E,0,High,1,Sad,80,1,Sad,223,1,High,78
157,4,0.25,E,1,Low,0,Happy,20,0,Happy,205,1,High,94
158,4,0.25,UE,0,High,0,Happy,20,0,Happy,260,1,High,94
159,4,0.25,E,0,High,1,Sad,60,1,Sad,303,1,High,101
160,4,0.25,E,1,Low,0,Happy,40,0,Happy,331,1,High,69
161,4,0.25,E,1,Low,0,Happy,0,0,Happy,332,1,High,69
162,4,0.25,UE,1,Low,1,Sad,60,1,Sad,342,1,High,70
163,4,0.25,E,0,High,1,Sad,100,0,Happy,224,0,Low,942
164,4,0.25,E,0,High,1,Sad,60,1,Sad,741,0,Low,206
165,4,0.25,UE,0,High,0,Happy,0,0,Happy,522,1,High,166
166,4,0.25,E,1,Low,0,Happy,40,0,Happy,818,0,Low,493
167,4,0.25,E,1,Low,0,Happy,20,0,Happy,549,1,High,171
168,4,0.25,UE,1,Low,1,Sad,100,1,Sad,370,1,High,117
169,5,0.75,E,0,High,0,Happy,20,0,Happy,332,1,High,68
170,5,0.75,UE,0,High,1,Sad,60,1,Sad,759,1,High,414
171,5,0.75,E,0,High,0,Happy,0,0,Happy,372,1,High,86
172,5,0.75,E,0,High,0,Happy,40,0,Happy,544,0,Low,334
173,5,0.75,E,1,Low,1,Sad,60,1,Sad,546,1,High,205
174,5,0.75,E,1,Low,1,Sad,80,1,Sad,314,1,High,69
175,5,0.75,E,1,Low,1,Sad,60,1,Sad,314,1,High,69
176,5,0.75,E,0,High,0,Happy,20,0,Happy,311,1,High,86
177,5,0.75,E,1,Low,1,Sad,100,1,Sad,355,1,High,110
178,5,0.75,UE,1,Low,0,Happy,0,0,Happy,341,1,High,110
179,5,0.75,E,0,High,0,Happy,20,0,Happy,267,1,High,93
180,5,0.75,UE,1,Low,0,Happy,40,0,Happy,528,0,Low,206
181,5,0.75,E,1,Low,1,Sad,60,1,Sad,382,1,High,349
182,5,0.75,E,0,High,0,Happy,40,0,Happy,714,0,Low,725
183,5,0.75,E,1,Low,1,Sad,80,1,Sad,388,1,High,94
184,5,0.75,E,1,Low,1,Sad,80,1,Sad,322,1,High,94
185,5,0.75,UE,0,High,1,Sad,80,1,Sad,276,1,High,78
186,5,0.75,UE,0,High,1,Sad,100,1,Sad,266,1,High,93
187,5,0.75,E,0,High,0,Happy,0,0,Happy,357,1,High,110
188,5,0.75,E,1,Low,1,Sad,100,1,Sad,257,1,High,102
189,5,0.75,UE,1,Low,0,Happy,20,0,Happy,331,1,High,94
190,5,0.75,E,0,High,0,Happy,0,0,Happy,234,1,High,85
191,5,0.75,E,1,Low,1,Sad,100,1,Sad,339,1,High,110
192,5,0.75,E,0,High,0,Happy,40,0,Happy,338,1,High,110
