Trial_N,Block_N,Contingency,Expectedness,Cue_idx,Cue_name,Outcome_idx,Outcome_name,Outcome_p_sad,Response_idx,Response_name,Response_RT,Confidence_idx,Confidence_name,Confidence_RT
1,1,0.75,E,1,Low,1,Sad,80,1,Sad,1840,1,High,368.999999999998
2,1,0.75,E,1,Low,1,Sad,100,1,Sad,548,1,High,385
3,1,0.75,E,1,Low,1,Sad,80,1,Sad,641,1,High,430
4,1,0.75,E,0,High,0,Happy,20,0,Happy,283,1,High,307
5,1,0.75,E,0,High,0,Happy,0,0,Happy,355,1,High,375
6,1,0.75,UE,0,High,1,Sad,100,1,Sad,488.999999999996,1,High,419
7,1,0.75,E,1,Low,1,Sad,60,1,Sad,608,1,High,404
8,1,0.75,E,0,High,0,Happy,20,0,Happy,512,1,High,393.999999999996
9,1,0.75,UE,1,Low,0,Happy,20,0,Happy,541,1,High,345
10,1,0.75,E,1,Low,1,Sad,100,1,Sad,472.000000000007,1,High,354
11,1,0.75,E,1,Low,1,Sad,60,1,Sad,426,1,High,412.000000000007
12,1,0.75,E,0,High,0,Happy,40,0,Happy,266,1,High,359
13,1,0.75,E,1,Low,1,Sad,60,1,Sad,542.000000000007,1,High,410
14,1,0.75,E,1,Low,1,Sad,60,1,Sad,703,1,High,339.000000000007
15,1,0.75,E,1,Low,1,Sad,60,1,Sad,374.000000000007,1,High,387
16,1,0.75,UE,0,High,1,Sad,80,1,Sad,489,1,High,397
17,1,0.75,E,0,High,0,Happy,0,0,Happy,412,1,High,311
18,1,0.75,E,0,High,0,Happy,20,0,Happy,352,1,High,314
19,1,0.75,E,1,Low,1,Sad,80,1,Sad,310,1,High,344
20,1,0.75,E,0,High,0,Happy,0,0,Happy,436,1,High,320
21,1,0.75,UE,0,High,1,Sad,100,1,Sad,430,1,High,328.999999999993
22,1,0.75,E,0,High,0,Happy,20,0,Happy,378,1,High,310
23,1,0.75,E,1,Low,1,Sad,60,1,Sad,343,1,High,418
24,1,0.75,E,0,High,0,Happy,40,1,Sad,449.999999999985,1,High,377
25,1,0.75,UE,1,Low,0,Happy,0,0,Happy,283,1,High,332
26,1,0.75,E,1,Low,1,Sad,80,1,Sad,456,1,High,405
27,1,0.75,E,0,High,0,Happy,0,0,Happy,455,1,High,371
28,1,0.75,E,0,High,0,Happy,0,0,Happy,351,1,High,312.999999999985
29,1,0.75,E,1,Low,1,Sad,60,1,Sad,276,1,High,418
30,1,0.75,E,1,Low,1,Sad,100,1,Sad,287,1,High,336
31,1,0.75,UE,1,Low,0,Happy,40,1,Sad,578.999999999985,1,High,356
32,1,0.75,UE,0,High,1,Sad,100,1,Sad,495,1,High,326.000000000015
33,1,0.75,E,0,High,0,Happy,40,1,Sad,452,1,High,319
34,1,0.75,E,0,High,0,Happy,40,1,Sad,430,1,High,302
35,1,0.75,E,1,Low,1,Sad,80,1,Sad,422,1,High,318
36,1,0.75,E,1,Low,1,Sad,60,1,Sad,303,1,High,412
37,1,0.75,E,0,High,0,Happy,40,1,Sad,634,1,High,320.999999999985
38,1,0.75,UE,0,High,1,Sad,80,1,Sad,452,1,High,371
39,1,0.75,E,1,Low,1,Sad,60,1,Sad,488,1,High,432.000000000015
40,1,0.75,E,0,High,0,Happy,40,1,Sad,515,1,High,348
41,1,0.75,UE,1,Low,0,Happy,20,0,Happy,481,1,High,311
42,1,0.75,E,0,High,0,Happy,20,0,Happy,385,1,High,293
43,1,0.75,E,1,Low,1,Sad,100,1,Sad,488,1,High,312
44,1,0.75,UE,0,High,1,Sad,80,1,Sad,836,1,High,322
45,1,0.75,E,1,Low,1,Sad,100,1,Sad,464,1,High,337
46,1,0.75,E,0,High,0,Happy,0,0,Happy,428,1,High,299
47,1,0.75,E,1,Low,1,Sad,80,1,Sad,540,1,High,364
48,1,0.75,UE,1,Low,0,Happy,20,0,Happy,707,1,High,258
49,1,0.75,E,0,High,0,Happy,0,0,Happy,385,1,High,283
50,1,0.75,E,1,Low,1,Sad,80,1,Sad,396,1,High,312.999999999985
51,1,0.75,E,0,High,0,Happy,20,0,Happy,673.999999999985,1,High,284.000000000015
52,1,0.75,UE,0,High,1,Sad,60,1,Sad,449.999999999971,1,High,358
53,1,0.75,UE,1,Low,0,Happy,0,0,Happy,418,1,High,265.000000000029
54,1,0.75,E,1,Low,1,Sad,100,1,Sad,503,1,High,310
55,1,0.75,E,1,Low,1,Sad,100,1,Sad,1146,1,High,304
56,1,0.75,E,0,High,0,Happy,0,0,Happy,396,1,High,281
57,1,0.75,E,1,Low,1,Sad,100,1,Sad,628,1,High,309
58,1,0.75,UE,0,High,1,Sad,100,1,Sad,479,1,High,336
59,1,0.75,E,1,Low,1,Sad,80,1,Sad,353,1,High,318
60,1,0.75,E,0,High,0,Happy,20,0,Happy,321.999999999971,1,High,270.000000000029
61,1,0.75,UE,1,Low,0,Happy,40,0,Happy,463,1,High,267
62,1,0.75,UE,1,Low,0,Happy,20,0,Happy,507,1,High,355
63,1,0.75,E,0,High,0,Happy,20,0,Happy,494,1,High,294
64,1,0.75,E,1,Low,1,Sad,60,1,Sad,2744,1,High,601
65,1,0.75,E,0,High,0,Happy,40,0,Happy,711,1,High,302
66,1,0.75,E,1,Low,1,Sad,80,1,Sad,647.000000000029,1,High,328
67,1,0.75,UE,1,Low,0,Happy,0,0,Happy,411,1,High,271
68,1,0.75,E,0,High,0,Happy,40,0,Happy,456.000000000029,1,High,289
69,1,0.75,E,0,High,0,Happy,40,0,Happy,476,1,High,275
70,1,0.75,E,0,High,0,Happy,0,0,Happy,439,1,High,270
71,1,0.75,UE,1,Low,0,Happy,0,0,Happy,350,1,High,305
72,1,0.75,E,1,Low,1,Sad,60,1,Sad,331,1,High,632
73,1,0.75,E,0,High,0,Happy,40,0,Happy,2231,0,Low,940.000000000029
74,1,0.75,E,1,Low,1,Sad,100,1,Sad,773,1,High,431
75,1,0.75,E,1,Low,1,Sad,100,1,Sad,440,1,High,432
76,1,0.75,E,0,High,0,Happy,20,0,Happy,613,1,High,300.000000000029
77,1,0.75,UE,0,High,1,Sad,60,0,Happy,953,1,High,274.999999999971
78,1,0.75,E,0,High,0,Happy,0,0,Happy,602,1,High,314
79,1,0.75,E,0,High,0,Happy,40,0,Happy,394,1,High,282
80,1,0.75,UE,0,High,1,Sad,60,1,Sad,825,1,High,398
81,1,0.75,E,0,High,0,Happy,40,0,Happy,1628.99999999997,0,Low,1202.99999999997
82,1,0.75,UE,0,High,1,Sad,80,1,Sad,800,1,High,645.000000000029
83,1,0.75,E,0,High,0,Happy,0,0,Happy,526.000000000029,1,High,317
84,1,0.75,E,0,High,0,Happy,20,0,Happy,466.000000000029,1,High,334
85,1,0.75,E,1,Low,1,Sad,100,1,Sad,576,1,High,314
86,1,0.75,E,1,Low,1,Sad,100,1,Sad,487,1,High,331
87,1,0.75,UE,1,Low,0,Happy,40,1,Sad,489,1,High,479.000000000029
88,1,0.75,E,1,Low,1,Sad,80,1,Sad,571.999999999971,1,High,446
89,1,0.75,E,0,High,0,Happy,0,0,Happy,334.999999999971,1,High,330
90,1,0.75,UE,0,High,1,Sad,60,0,Happy,708,1,High,275
91,1,0.75,E,1,Low,1,Sad,60,1,Sad,750,0,Low,917
92,1,0.75,E,1,Low,1,Sad,80,1,Sad,1427,0,Low,593
93,1,0.75,E,0,High,0,Happy,20,0,Happy,561,1,High,342
94,1,0.75,E,0,High,0,Happy,20,0,Happy,920,1,High,343
95,1,0.75,UE,1,Low,0,Happy,40,0,Happy,530,1,High,275.999999999971
96,1,0.75,E,1,Low,1,Sad,80,1,Sad,580.000000000029,1,High,554
97,2,0.25,E,1,Low,0,Happy,0,0,Happy,485,1,High,299
98,2,0.25,UE,1,Low,1,Sad,80,1,Sad,324,1,High,413
99,2,0.25,E,1,Low,0,Happy,40,0,Happy,1803,0,Low,1380.99999999997
100,2,0.25,E,1,Low,0,Happy,40,0,Happy,430.000000000029,1,High,462.999999999971
101,2,0.25,E,0,High,1,Sad,60,0,Happy,1217,1,High,1034
102,2,0.25,E,1,Low,0,Happy,20,0,Happy,503,1,High,337
103,2,0.25,E,0,High,1,Sad,80,1,Sad,626,1,High,555
104,2,0.25,UE,1,Low,1,Sad,100,1,Sad,995,1,High,2
105,2,0.25,E,1,Low,0,Happy,20,0,Happy,551,1,High,349
106,2,0.25,UE,1,Low,1,Sad,60,1,Sad,687.000000000058,1,High,384
107,2,0.25,UE,0,High,0,Happy,20,0,Happy,494,1,High,356
108,2,0.25,E,0,High,1,Sad,100,1,Sad,479,1,High,385.999999999942
109,2,0.25,E,1,Low,0,Happy,40,0,Happy,452,1,High,360
110,2,0.25,E,0,High,1,Sad,80,1,Sad,566,1,High,405
111,2,0.25,E,0,High,1,Sad,60,1,Sad,778.000000000058,1,High,376
112,2,0.25,E,1,Low,0,Happy,0,0,Happy,596,1,High,323
113,2,0.25,UE,0,High,0,Happy,40,0,Happy,713,1,High,326.999999999942
114,2,0.25,E,0,High,1,Sad,80,1,Sad,653.999999999942,1,High,328
115,2,0.25,E,0,High,1,Sad,100,1,Sad,504,1,High,323
116,2,0.25,E,0,High,1,Sad,60,1,Sad,842,1,High,308
117,2,0.25,E,1,Low,0,Happy,0,0,Happy,530,1,High,303
118,2,0.25,E,1,Low,0,Happy,20,0,Happy,547,1,High,270
119,2,0.25,UE,0,High,0,Happy,0,0,Happy,651,1,High,286
120,2,0.25,E,0,High,1,Sad,100,1,Sad,470.000000000058,1,High,357
121,3,0.75,E,0,High,0,Happy,0,0,Happy,590,1,High,294
122,3,0.75,E,0,High,0,Happy,40,0,Happy,691.000000000058,1,High,292
123,3,0.75,E,0,High,0,Happy,0,0,Happy,648,1,High,302
124,3,0.75,E,1,Low,1,Sad,80,1,Sad,482,1,High,382.000000000058
125,3,0.75,E,1,Low,1,Sad,60,0,Happy,709,1,High,274.999999999942
126,3,0.75,UE,0,High,1,Sad,100,1,Sad,530,1,High,393.999999999942
127,3,0.75,E,0,High,0,Happy,20,0,Happy,626,1,High,276
128,3,0.75,E,0,High,0,Happy,40,0,Happy,796,1,High,277
129,3,0.75,UE,1,Low,0,Happy,20,0,Happy,501.999999999942,1,High,279
130,3,0.75,E,1,Low,1,Sad,100,1,Sad,353,1,High,312.999999999942
131,3,0.75,E,0,High,0,Happy,40,0,Happy,494,1,High,282
132,3,0.75,UE,1,Low,0,Happy,40,0,Happy,639,1,High,287
133,3,0.75,UE,0,High,1,Sad,60,1,Sad,643,1,High,525
134,3,0.75,E,1,Low,1,Sad,80,1,Sad,505,1,High,687
135,3,0.75,E,1,Low,1,Sad,60,1,Sad,510,1,High,337
136,3,0.75,E,1,Low,1,Sad,60,1,Sad,514,1,High,530
137,3,0.75,E,1,Low,1,Sad,100,1,Sad,633,1,High,507
138,3,0.75,UE,0,High,1,Sad,80,1,Sad,609.000000000058,1,High,378
139,3,0.75,E,0,High,0,Happy,20,0,Happy,754,1,High,276.000000000058
140,3,0.75,E,1,Low,1,Sad,80,1,Sad,556,1,High,323
141,3,0.75,E,1,Low,1,Sad,100,1,Sad,654,1,High,323
142,3,0.75,E,0,High,0,Happy,0,0,Happy,456.000000000058,1,High,321
143,3,0.75,UE,1,Low,0,Happy,0,0,Happy,443.000000000058,1,High,288
144,3,0.75,E,0,High,0,Happy,20,0,Happy,475,1,High,271
145,4,0.25,E,1,Low,0,Happy,0,0,Happy,538,1,High,273
146,4,0.25,E,1,Low,0,Happy,20,0,Happy,510.000000000058,1,High,263
147,4,0.25,UE,1,Low,1,Sad,80,1,Sad,865,1,High,315
148,4,0.25,UE,0,High,0,Happy,40,0,Happy,444,1,High,290
149,4,0.25,E,0,High,1,Sad,80,1,Sad,499,1,High,330
150,4,0.25,E,0,High,1,Sad,60,1,Sad,905.999999999942,1,High,355
151,4,0.25,E,1,Low,0,Happy,0,0,Happy,456,1,High,305
152,4,0.25,E,0,High,1,Sad,80,1,Sad,1128,1,High,407.000000000058
153,4,0.25,E,1,Low,0,Happy,40,0,Happy,478,1,High,262
154,4,0.25,E,0,High,1,Sad,100,1,Sad,508.000000000058,1,High,303
155,4,0.25,E,0,High,1,Sad,100,1,Sad,579,1,High,307
156,4,0.25,E,0,High,1,Sad,80,1,Sad,505,1,High,332.999999999942
157,4,0.25,E,1,Low,0,Happy,20,0,Happy,490,1,High,276
158,4,0.25,UE,0,High,0,Happy,20,0,Happy,458,1,High,279.999999999942
159,4,0.25,E,0,High,1,Sad,60,0,Happy,831.000000000058,1,High,288
160,4,0.25,E,1,Low,0,Happy,40,0,Happy,555,1,High,267
161,4,0.25,E,1,Low,0,Happy,0,0,Happy,455,1,High,260
162,4,0.25,UE,1,Low,1,Sad,60,1,Sad,349,1,High,310
163,4,0.25,E,0,High,1,Sad,100,1,Sad,395,1,High,312.999999999942
164,4,0.25,E,0,High,1,Sad,60,0,Happy,2369,0,Low,1592
165,4,0.25,UE,0,High,0,Happy,0,0,Happy,1019,1,High,390.999999999942
166,4,0.25,E,1,Low,0,Happy,40,0,Happy,414,1,High,283
167,4,0.25,E,1,Low,0,Happy,20,0,Happy,591,1,High,284
168,4,0.25,UE,1,Low,1,Sad,100,1,Sad,444,1,High,321
169,5,0.75,E,0,High,0,Happy,20,0,Happy,730.999999999942,1,High,278
170,5,0.75,UE,0,High,1,Sad,60,1,Sad,1754,0,Low,1050
171,5,0.75,E,0,High,0,Happy,0,0,Happy,531.999999999942,1,High,526
172,5,0.75,E,0,High,0,Happy,40,0,Happy,834,1,High,300
173,5,0.75,E,1,Low,1,Sad,60,1,Sad,647.999999999942,1,High,364.999999999942
174,5,0.75,E,1,Low,1,Sad,80,1,Sad,505,1,High,363
175,5,0.75,E,1,Low,1,Sad,60,1,Sad,1119,1,High,840.000000000058
176,5,0.75,E,0,High,0,Happy,20,0,Happy,584,1,High,332
177,5,0.75,E,1,Low,1,Sad,100,1,Sad,591,1,High,380
178,5,0.75,UE,1,Low,0,Happy,0,0,Happy,429,1,High,307.999999999942
179,5,0.75,E,0,High,0,Happy,20,0,Happy,451,1,High,287.000000000058
180,5,0.75,UE,1,Low,0,Happy,40,0,Happy,614,1,High,282
181,5,0.75,E,1,Low,1,Sad,60,1,Sad,1856.00000000006,1,High,352
182,5,0.75,E,0,High,0,Happy,40,0,Happy,552.000000000058,1,High,318.000000000058
183,5,0.75,E,1,Low,1,Sad,80,1,Sad,794.999999999942,1,High,351.999999999942
184,5,0.75,E,1,Low,1,Sad,80,1,Sad,445,1,High,319.999999999942
185,5,0.75,UE,0,High,1,Sad,80,1,Sad,487,1,High,304
186,5,0.75,UE,0,High,1,Sad,100,1,Sad,366.999999999942,1,High,292.999999999942
187,5,0.75,E,0,High,0,Happy,0,0,Happy,494.000000000058,1,High,258
188,5,0.75,E,1,Low,1,Sad,100,1,Sad,576,1,High,332
189,5,0.75,UE,1,Low,0,Happy,20,0,Happy,365.000000000058,1,High,277
190,5,0.75,E,0,High,0,Happy,0,0,Happy,397.000000000058,1,High,275
191,5,0.75,E,1,Low,1,Sad,100,1,Sad,433,1,High,441
192,5,0.75,E,0,High,0,Happy,40,0,Happy,491,1,High,277.999999999942
