Trial_N,Block_N,Contingency,Expectedness,Cue_idx,Cue_name,Outcome_idx,Outcome_name,Outcome_p_sad,Response_idx,Response_name,Response_RT,Confidence_idx,Confidence_name,Confidence_RT
1,1,0.75,E,1,Low,1,Sad,80,1,Sad,869.700000047684,1,High,1424.39999997616
2,1,0.75,E,1,Low,1,Sad,100,1,Sad,393.899999976158,1,High,222.600000023842
3,1,0.75,E,1,Low,1,Sad,80,1,Sad,404.200000047684,1,High,212.600000023842
4,1,0.75,E,0,High,0,Happy,20,0,Happy,339.399999976158,1,High,180.600000023842
5,1,0.75,E,0,High,0,Happy,0,0,Happy,235.399999976158,1,High,239.200000047684
6,1,0.75,UE,0,High,1,Sad,100,1,Sad,757,1,High,298.599999904633
7,1,0.75,E,1,Low,1,Sad,60,1,Sad,1789.59999990463,1,High,1345.30000007153
8,1,0.75,E,0,High,0,Happy,20,0,Happy,579.100000023842,1,High,275.100000023842
9,1,0.75,UE,1,Low,0,Happy,20,0,Happy,1169.70000004768,1,High,609.699999928474
10,1,0.75,E,1,Low,1,Sad,100,1,Sad,346.199999928474,1,High,159.899999976158
11,1,0.75,E,1,Low,1,Sad,60,1,Sad,1648,0,Low,723.600000023842
12,1,0.75,E,0,High,0,Happy,40,1,Sad,1817.20000004768,0,Low,602.899999976158
13,1,0.75,E,1,Low,1,Sad,60,1,Sad,1348.30000007153,1,High,631.899999976158
14,1,0.75,E,1,Low,1,Sad,60,1,Sad,299,1,High,195.899999976158
15,1,0.75,E,1,Low,1,Sad,60,1,Sad,831.099999904633,1,High,973.600000023842
16,1,0.75,UE,0,High,1,Sad,80,1,Sad,1459.39999997616,1,High,836.100000023842
17,1,0.75,E,0,High,0,Happy,0,0,Happy,410,1,High,221.100000023842
18,1,0.75,E,0,High,0,Happy,20,0,Happy,349.800000071526,1,High,223.399999976158
19,1,0.75,E,1,Low,1,Sad,80,1,Sad,387,1,High,207
20,1,0.75,E,0,High,0,Happy,0,0,Happy,850.600000023842,1,High,238.800000071526
21,1,0.75,UE,0,High,1,Sad,100,1,Sad,1043.79999995232,1,High,297.600000023842
22,1,0.75,E,0,High,0,Happy,20,0,Happy,449.5,1,High,198.5
23,1,0.75,E,1,Low,1,Sad,60,1,Sad,811.400000095367,1,High,296.799999952316
24,1,0.75,E,0,High,0,Happy,40,0,Happy,1466.60000002384,0,Low,365.299999952316
25,1,0.75,UE,1,Low,0,Happy,0,0,Happy,421.799999952316,1,High,240.100000023842
26,1,0.75,E,1,Low,1,Sad,80,1,Sad,409.899999976158,1,High,251.200000047684
27,1,0.75,E,0,High,0,Happy,0,0,Happy,323.299999952316,1,High,269.799999952316
28,1,0.75,E,0,High,0,Happy,0,0,Happy,1341.39999997616,1,High,512.200000047684
29,1,0.75,E,1,Low,1,Sad,60,1,Sad,646.899999976158,0,Low,902
30,1,0.75,E,1,Low,1,Sad,100,1,Sad,367.600000023842,1,High,215.399999976158
31,1,0.75,UE,1,Low,0,Happy,40,0,Happy,1999.70000004768,1,High,1154.89999997616
32,1,0.75,UE,0,High,1,Sad,100,1,Sad,763.800000071526,1,High,281.599999904633
33,1,0.75,E,0,High,0,Happy,40,0,Happy,1663.29999995232,0,Low,286.199999928474
34,1,0.75,E,0,High,0,Happy,40,0,Happy,626.899999976158,0,Low,291.600000023842
35,1,0.75,E,1,Low,1,Sad,80,1,Sad,670.700000047684,1,High,234
36,1,0.75,E,1,Low,1,Sad,60,1,Sad,1520.39999997616,0,Low,467.599999904633
37,1,0.75,E,0,High,0,Happy,40,0,Happy,840.800000071526,1,High,278.099999904633
38,1,0.75,UE,0,High,1,Sad,80,1,Sad,483,1,High,594.799999952316
39,1,0.75,E,1,Low,1,Sad,60,1,Sad,1259.70000004768,0,Low,942.800000071526
40,1,0.75,E,0,High,0,Happy,40,0,Happy,974.700000047684,1,High,450.5
41,1,0.75,UE,1,Low,0,Happy,20,0,Happy,488.400000095367,1,High,220.300000071526
42,1,0.75,E,0,High,0,Happy,20,0,Happy,376.900000095367,1,High,219.899999976158
43,1,0.75,E,1,Low,1,Sad,100,1,Sad,406.600000023842,1,High,249
44,1,0.75,UE,0,High,1,Sad,80,1,Sad,1012.89999997616,1,High,216.899999976158
45,1,0.75,E,1,Low,1,Sad,100,1,Sad,368.900000095367,1,High,217.799999952316
46,1,0.75,E,0,High,0,Happy,0,0,Happy,1255,1,High,257.100000023842
47,1,0.75,E,1,Low,1,Sad,80,1,Sad,722.299999952316,1,High,243.299999952316
48,1,0.75,UE,1,Low,0,Happy,20,0,Happy,1163.39999997616,1,High,275.100000023842
49,1,0.75,E,0,High,0,Happy,0,0,Happy,374.899999976158,1,High,253.399999976158
50,1,0.75,E,1,Low,1,Sad,80,1,Sad,813.699999928474,1,High,255.699999928474
51,1,0.75,E,0,High,0,Happy,20,0,Happy,580.199999928474,1,High,328.5
52,1,0.75,UE,0,High,1,Sad,60,0,Happy,1907.60000002384,0,Low,656.399999976158
53,1,0.75,UE,1,Low,0,Happy,0,0,Happy,472.200000047684,1,High,300.899999976158
54,1,0.75,E,1,Low,1,Sad,100,1,Sad,476.5,1,High,210.400000095367
55,1,0.75,E,1,Low,1,Sad,100,1,Sad,318.400000095367,1,High,194.799999952316
56,1,0.75,E,0,High,0,Happy,0,0,Happy,413,1,High,226.5
57,1,0.75,E,1,Low,1,Sad,100,1,Sad,374.899999976158,1,High,219.299999952316
58,1,0.75,UE,0,High,1,Sad,100,1,Sad,383.600000023842,1,High,238.799999952316
59,1,0.75,E,1,Low,1,Sad,80,1,Sad,430,1,High,173.799999952316
60,1,0.75,E,0,High,0,Happy,20,0,Happy,412.100000023842,1,High,231
61,1,0.75,UE,1,Low,0,Happy,40,0,Happy,297,1,High,242.899999976158
62,1,0.75,UE,1,Low,0,Happy,20,0,Happy,505.300000071526,1,High,362.899999976158
63,1,0.75,E,0,High,0,Happy,20,0,Happy,308,1,High,246.899999976158
64,1,0.75,E,1,Low,1,Sad,60,1,Sad,362.899999976158,1,High,333
65,1,0.75,E,0,High,0,Happy,40,0,Happy,490.5,1,High,234.699999928474
66,1,0.75,E,1,Low,1,Sad,80,1,Sad,371.099999904633,1,High,214.400000095367
67,1,0.75,UE,1,Low,0,Happy,0,0,Happy,406.199999928474,1,High,247
68,1,0.75,E,0,High,0,Happy,40,0,Happy,827.299999952316,1,High,293.399999976158
69,1,0.75,E,0,High,0,Happy,40,0,Happy,436,1,High,283.100000023842
70,1,0.75,E,0,High,0,Happy,0,0,Happy,532,1,High,247.100000023842
71,1,0.75,UE,1,Low,0,Happy,0,0,Happy,496.100000023842,1,High,252.799999952316
72,1,0.75,E,1,Low,1,Sad,60,1,Sad,368.299999952316,1,High,230.100000023842
73,1,0.75,E,0,High,0,Happy,40,0,Happy,2062.70000004768,0,Low,365.799999952316
74,1,0.75,E,1,Low,1,Sad,100,1,Sad,520.100000023842,1,High,209
75,1,0.75,E,1,Low,1,Sad,100,1,Sad,244.800000071526,1,High,208.899999976158
76,1,0.75,E,0,High,0,Happy,20,0,Happy,469,1,High,279.799999952316
77,1,0.75,UE,0,High,1,Sad,60,0,Happy,1842.10000002384,0,Low,417.399999976158
78,1,0.75,E,0,High,0,Happy,0,0,Happy,706.399999976158,1,High,314.800000071526
79,1,0.75,E,0,High,0,Happy,40,0,Happy,1312.39999997616,1,High,228.200000047684
80,1,0.75,UE,0,High,1,Sad,60,1,Sad,573.799999952316,1,High,285.600000023842
81,1,0.75,E,0,High,0,Happy,40,0,Happy,2030,0,Low,322.899999976158
82,1,0.75,UE,0,High,1,Sad,80,1,Sad,505.899999976158,1,High,234
83,1,0.75,E,0,High,0,Happy,0,0,Happy,916,1,High,215.600000023842
84,1,0.75,E,0,High,0,Happy,20,0,Happy,453.899999976158,1,High,203.699999928474
85,1,0.75,E,1,Low,1,Sad,100,1,Sad,451.899999976158,1,High,262.899999976158
86,1,0.75,E,1,Low,1,Sad,100,1,Sad,337,1,High,279.200000047684
87,1,0.75,UE,1,Low,0,Happy,40,0,Happy,444.900000095367,1,High,269.899999976158
88,1,0.75,E,1,Low,1,Sad,80,1,Sad,1414.70000004768,1,High,343.799999952316
89,1,0.75,E,0,High,0,Happy,0,0,Happy,435.399999976158,1,High,215.5
90,1,0.75,UE,0,High,1,Sad,60,0,Happy,1380.39999997616,0,Low,415.5
91,1,0.75,E,1,Low,1,Sad,60,0,Happy,1234.29999995232,0,Low,343.800000071526
92,1,0.75,E,1,Low,1,Sad,80,1,Sad,623.400000095367,1,High,181.199999928474
93,1,0.75,E,0,High,0,Happy,20,0,Happy,414.200000047684,1,High,230
94,1,0.75,E,0,High,0,Happy,20,0,Happy,345.699999928474,1,High,219.100000023842
95,1,0.75,UE,1,Low,0,Happy,40,0,Happy,1982.10000002384,0,Low,629.799999952316
96,1,0.75,E,1,Low,1,Sad,80,1,Sad,513.899999976158,1,High,199.200000047684
97,2,0.25,E,1,Low,0,Happy,0,0,Happy,381.700000047684,1,High,220.299999952316
98,2,0.25,UE,1,Low,1,Sad,80,1,Sad,1088.89999997616,1,High,267.600000023842
99,2,0.25,E,1,Low,0,Happy,40,1,Sad,1494.09999990463,0,Low,600.5
100,2,0.25,E,1,Low,0,Happy,40,1,Sad,614.5,0,Low,387.199999928474
101,2,0.25,E,0,High,1,Sad,60,1,Sad,555.5,1,High,420.200000047684
102,2,0.25,E,1,Low,0,Happy,20,0,Happy,421.900000095367,1,High,191.800000071526
103,2,0.25,E,0,High,1,Sad,80,1,Sad,1115.5,1,High,694.199999928474
104,2,0.25,UE,1,Low,1,Sad,100,1,Sad,445.100000023842,1,High,216.200000047684
105,2,0.25,E,1,Low,0,Happy,20,0,Happy,428.399999976158,1,High,207.100000023842
106,2,0.25,UE,1,Low,1,Sad,60,0,Happy,937.599999904633,0,Low,892
107,2,0.25,UE,0,High,0,Happy,20,0,Happy,419.5,1,High,454.299999952316
108,2,0.25,E,0,High,1,Sad,100,1,Sad,486.100000023842,1,High,226.700000047684
109,2,0.25,E,1,Low,0,Happy,40,0,Happy,2003.90000009537,1,High,208.600000023842
110,2,0.25,E,0,High,1,Sad,80,1,Sad,1507.60000002384,1,High,273.100000023842
111,2,0.25,E,0,High,1,Sad,60,0,Happy,1597.80000007153,0,Low,388.700000047684
112,2,0.25,E,1,Low,0,Happy,0,0,Happy,412.399999976158,1,High,192.799999952316
113,2,0.25,UE,0,High,0,Happy,40,0,Happy,1058.5,1,High,273.100000023842
114,2,0.25,E,0,High,1,Sad,80,0,Happy,1029.70000004768,0,Low,424.899999976158
115,2,0.25,E,0,High,1,Sad,100,1,Sad,683.200000047684,1,High,192.5
116,2,0.25,E,0,High,1,Sad,60,0,Happy,1010.10000002384,1,High,1101.29999995232
117,2,0.25,E,1,Low,0,Happy,0,0,Happy,624.600000023842,1,High,215.099999904633
118,2,0.25,E,1,Low,0,Happy,20,0,Happy,319.899999976158,1,High,179.899999976158
119,2,0.25,UE,0,High,0,Happy,0,0,Happy,298.099999904633,1,High,197.299999952316
120,2,0.25,E,0,High,1,Sad,100,1,Sad,407.399999976158,1,High,312.800000071526
121,3,0.75,E,0,High,0,Happy,0,0,Happy,392.799999952316,1,High,191.5
122,3,0.75,E,0,High,0,Happy,40,0,Happy,391.100000023842,1,High,179.600000023842
123,3,0.75,E,0,High,0,Happy,0,0,Happy,397.699999928474,1,High,242.100000023842
124,3,0.75,E,1,Low,1,Sad,80,1,Sad,1235.89999997616,1,High,335.900000095367
125,3,0.75,E,1,Low,1,Sad,60,1,Sad,987.5,1,High,324.400000095367
126,3,0.75,UE,0,High,1,Sad,100,1,Sad,984.699999928474,1,High,426.800000071526
127,3,0.75,E,0,High,0,Happy,20,0,Happy,666.299999952316,1,High,276.799999952316
128,3,0.75,E,0,High,0,Happy,40,0,Happy,1051.30000007153,1,High,225.899999976158
129,3,0.75,UE,1,Low,0,Happy,20,0,Happy,971.5,1,High,895.799999952316
130,3,0.75,E,1,Low,1,Sad,100,1,Sad,373.799999952316,1,High,224.5
131,3,0.75,E,0,High,0,Happy,40,0,Happy,965.5,1,High,207
132,3,0.75,UE,1,Low,0,Happy,40,0,Happy,392.700000047684,1,High,221.5
133,3,0.75,UE,0,High,1,Sad,60,1,Sad,386.699999928474,1,High,239.200000047684
134,3,0.75,E,1,Low,1,Sad,80,1,Sad,413.400000095367,1,High,212.100000023842
135,3,0.75,E,1,Low,1,Sad,60,1,Sad,312.799999952316,1,High,238.200000047684
136,3,0.75,E,1,Low,1,Sad,60,1,Sad,311.899999976158,1,High,265.300000071526
137,3,0.75,E,1,Low,1,Sad,100,1,Sad,536.799999952316,1,High,203.900000095367
138,3,0.75,UE,0,High,1,Sad,80,1,Sad,1346.39999997616,1,High,271
139,3,0.75,E,0,High,0,Happy,20,0,Happy,381.5,1,High,190
140,3,0.75,E,1,Low,1,Sad,80,1,Sad,512.5,1,High,184.899999976158
141,3,0.75,E,1,Low,1,Sad,100,1,Sad,484.899999976158,1,High,264.900000095367
142,3,0.75,E,0,High,0,Happy,0,0,Happy,387,1,High,204.899999976158
143,3,0.75,UE,1,Low,0,Happy,0,0,Happy,271.600000023842,1,High,249.600000023842
144,3,0.75,E,0,High,0,Happy,20,0,Happy,314.800000071526,1,High,241.399999976158
145,4,0.25,E,1,Low,0,Happy,0,0,Happy,685.5,1,High,293.399999976158
146,4,0.25,E,1,Low,0,Happy,20,0,Happy,252.200000047684,1,High,259.200000047684
147,4,0.25,UE,1,Low,1,Sad,80,1,Sad,798.100000023842,1,High,265.700000047684
148,4,0.25,UE,0,High,0,Happy,40,0,Happy,744.399999976158,1,High,283.700000047684
149,4,0.25,E,0,High,1,Sad,80,1,Sad,532.899999976158,1,High,210.200000047684
150,4,0.25,E,0,High,1,Sad,60,1,Sad,512.5,1,High,314.699999928474
151,4,0.25,E,1,Low,0,Happy,0,0,Happy,333.5,1,High,256.200000047684
152,4,0.25,E,0,High,1,Sad,80,1,Sad,901.200000047684,1,High,245.200000047684
153,4,0.25,E,1,Low,0,Happy,40,0,Happy,430.400000095367,1,High,282.600000023842
154,4,0.25,E,0,High,1,Sad,100,1,Sad,676.600000023842,1,High,235.399999976158
155,4,0.25,E,0,High,1,Sad,100,1,Sad,598.5,1,High,166.599999904633
156,4,0.25,E,0,High,1,Sad,80,1,Sad,386.399999976158,1,High,202.800000071526
157,4,0.25,E,1,Low,0,Happy,20,0,Happy,532.100000023842,1,High,229.399999976158
158,4,0.25,UE,0,High,0,Happy,20,0,Happy,298.899999976158,1,High,260.200000047684
159,4,0.25,E,0,High,1,Sad,60,1,Sad,2026,0,Low,476.299999952316
160,4,0.25,E,1,Low,0,Happy,40,1,Sad,1602.19999992847,0,Low,468.200000047684
161,4,0.25,E,1,Low,0,Happy,0,0,Happy,1792.89999997616,1,High,270.600000023842
162,4,0.25,UE,1,Low,1,Sad,60,1,Sad,1043.10000002384,1,High,366.5
163,4,0.25,E,0,High,1,Sad,100,1,Sad,660.900000095367,1,High,177.899999976158
164,4,0.25,E,0,High,1,Sad,60,1,Sad,987.599999904633,0,Low,338.5
165,4,0.25,UE,0,High,0,Happy,0,0,Happy,428.900000095367,1,High,204
166,4,0.25,E,1,Low,0,Happy,40,0,Happy,840.5,1,High,269.100000023842
167,4,0.25,E,1,Low,0,Happy,20,0,Happy,376.299999952316,1,High,447.399999976158
168,4,0.25,UE,1,Low,1,Sad,100,1,Sad,691.899999976158,1,High,241.5
169,5,0.75,E,0,High,0,Happy,20,0,Happy,882.899999976158,1,High,255.899999976158
170,5,0.75,UE,0,High,1,Sad,60,1,Sad,1037.10000002384,0,Low,435.399999976158
171,5,0.75,E,0,High,0,Happy,0,0,Happy,480.800000071526,1,High,279.700000047684
172,5,0.75,E,0,High,0,Happy,40,0,Happy,1630.70000004768,1,High,1249.69999992847
173,5,0.75,E,1,Low,1,Sad,60,1,Sad,636.299999952316,1,High,244.899999976158
174,5,0.75,E,1,Low,1,Sad,80,1,Sad,333.900000095367,1,High,242.699999928474
175,5,0.75,E,1,Low,1,Sad,60,1,Sad,347.700000047684,1,High,242.100000023842
176,5,0.75,E,0,High,0,Happy,20,0,Happy,206.100000023842,1,High,263.100000023842
177,5,0.75,E,1,Low,1,Sad,100,1,Sad,504.899999976158,1,High,238.800000071526
178,5,0.75,UE,1,Low,0,Happy,0,1,Sad,437.200000047684,0,Low,1602.60000002384
179,5,0.75,E,0,High,0,Happy,20,0,Happy,773.700000047684,1,High,291.5
180,5,0.75,UE,1,Low,0,Happy,40,0,Happy,1040.29999995232,1,High,1036.89999997616
181,5,0.75,E,1,Low,1,Sad,60,1,Sad,565.5,1,High,279.199999928474
182,5,0.75,E,0,High,0,Happy,40,0,Happy,1242.5,0,Low,648.700000047684
183,5,0.75,E,1,Low,1,Sad,80,1,Sad,926.800000071526,1,High,257.299999952316
184,5,0.75,E,1,Low,1,Sad,80,1,Sad,361.5,1,High,187.700000047684
185,5,0.75,UE,0,High,1,Sad,80,1,Sad,457.5,1,High,207.399999976158
186,5,0.75,UE,0,High,1,Sad,100,1,Sad,328.199999928474,1,High,177.900000095367
187,5,0.75,E,0,High,0,Happy,0,0,Happy,401,1,High,203.900000095367
188,5,0.75,E,1,Low,1,Sad,100,1,Sad,721.100000023842,1,High,228
189,5,0.75,UE,1,Low,0,Happy,20,0,Happy,417.699999928474,1,High,229.299999952316
190,5,0.75,E,0,High,0,Happy,0,0,Happy,363.200000047684,1,High,201.699999928474
191,5,0.75,E,1,Low,1,Sad,100,1,Sad,346.899999976158,1,High,170.700000047684
192,5,0.75,E,0,High,0,Happy,40,0,Happy,684.099999904633,1,High,904.5
