Trial_N,Block_N,Contingency,Expectedness,Cue_idx,Cue_name,Outcome_idx,Outcome_name,Outcome_p_sad,Response_idx,Response_name,Response_RT,Confidence_idx,Confidence_name,Confidence_RT
1,1,0.75,E,1,Low,1,Sad,80,1,Sad,2048,1,High,3562
2,1,0.75,E,1,Low,1,Sad,100,1,Sad,1345,1,High,1700
3,1,0.75,E,1,Low,1,Sad,80,1,Sad,1297,1,High,1555
4,1,0.75,E,0,High,0,Happy,20,0,Happy,1215,1,High,1436
5,1,0.75,E,0,High,0,Happy,0,0,Happy,891,1,High,1362
6,1,0.75,UE,0,High,1,Sad,100,1,Sad,1558,0,Low,1360
7,1,0.75,E,1,Low,1,Sad,60,1,Sad,1108,1,High,1848
8,1,0.75,E,0,High,0,Happy,20,0,Happy,876,1,High,1241
9,1,0.75,UE,1,Low,0,Happy,20,0,Happy,1076,0,Low,1585
10,1,0.75,E,1,Low,1,Sad,100,1,Sad,890,1,High,1294
11,1,0.75,E,1,Low,1,Sad,60,1,Sad,1055,1,High,1213
12,1,0.75,E,0,High,0,Happy,40,1,Sad,2877,0,Low,732
13,1,0.75,E,1,Low,1,Sad,60,1,Sad,1020,1,High,2259
14,1,0.75,E,1,Low,1,Sad,60,1,Sad,880,1,High,1659
15,1,0.75,E,1,Low,1,Sad,60,1,Sad,1789,1,High,1738
16,1,0.75,UE,0,High,1,Sad,80,1,Sad,952,1,High,1890
17,1,0.75,E,0,High,0,Happy,0,0,Happy,1175,1,High,1282
18,1,0.75,E,0,High,0,Happy,20,0,Happy,916,1,High,1488
19,1,0.75,E,1,Low,1,Sad,80,1,Sad,879,1,High,1148
20,1,0.75,E,0,High,0,Happy,0,0,Happy,908,1,High,1169
21,1,0.75,UE,0,High,1,Sad,100,1,Sad,931,1,High,1690
22,1,0.75,E,0,High,0,Happy,20,0,Happy,1446,0,Low,1114
23,1,0.75,E,1,Low,1,Sad,60,1,Sad,1104,1,High,992
24,1,0.75,E,0,High,0,Happy,40,0,Happy,1398,0,Low,1655
25,1,0.75,UE,1,Low,0,Happy,0,0,Happy,1257,0,Low,1253
26,1,0.75,E,1,Low,1,Sad,80,1,Sad,976,1,High,1552
27,1,0.75,E,0,High,0,Happy,0,0,Happy,977,1,High,1221
28,1,0.75,E,0,High,0,Happy,0,0,Happy,744,1,High,851
29,1,0.75,E,1,Low,1,Sad,60,1,Sad,857,1,High,1163
30,1,0.75,E,1,Low,1,Sad,100,1,Sad,759,1,High,588
31,1,0.75,UE,1,Low,0,Happy,40,0,Happy,1163,0,Low,787
32,1,0.75,UE,0,High,1,Sad,100,1,Sad,942,1,High,1181
33,1,0.75,E,0,High,0,Happy,40,0,Happy,1183,0,Low,937
34,1,0.75,E,0,High,0,Happy,40,0,Happy,1226,1,High,789
35,1,0.75,E,1,Low,1,Sad,80,1,Sad,741,1,High,941
36,1,0.75,E,1,Low,1,Sad,60,1,Sad,749,1,High,807
37,1,0.75,E,0,High,0,Happy,40,0,Happy,905,1,High,728
38,1,0.75,UE,0,High,1,Sad,80,1,Sad,696,1,High,669
39,1,0.75,E,1,Low,1,Sad,60,1,Sad,969,0,Low,1530
40,1,0.75,E,0,High,0,Happy,40,0,Happy,1312,0,Low,661
41,1,0.75,UE,1,Low,0,Happy,20,0,Happy,1229,1,High,871
42,1,0.75,E,0,High,0,Happy,20,0,Happy,768,1,High,691
43,1,0.75,E,1,Low,1,Sad,100,1,Sad,752,1,High,686
44,1,0.75,UE,0,High,1,Sad,80,1,Sad,982,1,High,1140
45,1,0.75,E,1,Low,1,Sad,100,1,Sad,828,1,High,609
46,1,0.75,E,0,High,0,Happy,0,0,Happy,833,1,High,710
47,1,0.75,E,1,Low,1,Sad,80,1,Sad,707,1,High,670
48,1,0.75,UE,1,Low,0,Happy,20,0,Happy,786,1,High,856
49,1,0.75,E,0,High,0,Happy,0,0,Happy,1070,1,High,908
50,1,0.75,E,1,Low,1,Sad,80,1,Sad,660,1,High,836
51,1,0.75,E,0,High,0,Happy,20,0,Happy,788,1,High,690
52,1,0.75,UE,0,High,1,Sad,60,1,Sad,753,1,High,640
53,1,0.75,UE,1,Low,0,Happy,0,0,Happy,836,1,High,1109
54,1,0.75,E,1,Low,1,Sad,100,1,Sad,582,1,High,824
55,1,0.75,E,1,Low,1,Sad,100,1,Sad,630,1,High,1003
56,1,0.75,E,0,High,0,Happy,0,0,Happy,759,1,High,865
57,1,0.75,E,1,Low,1,Sad,100,1,Sad,641,1,High,1082
58,1,0.75,UE,0,High,1,Sad,100,1,Sad,611,1,High,840
59,1,0.75,E,1,Low,1,Sad,80,1,Sad,821,1,High,648
60,1,0.75,E,0,High,0,Happy,20,0,Happy,998,1,High,587
61,1,0.75,UE,1,Low,0,Happy,40,0,Happy,1095,0,Low,726
62,1,0.75,UE,1,Low,0,Happy,20,0,Happy,762,1,High,873
63,1,0.75,E,0,High,0,Happy,20,0,Happy,1250,1,High,516
64,1,0.75,E,1,Low,1,Sad,60,1,Sad,809,0,Low,1154
65,1,0.75,E,0,High,0,Happy,40,0,Happy,783,1,High,481
66,1,0.75,E,1,Low,1,Sad,80,1,Sad,509,1,High,604
67,1,0.75,UE,1,Low,0,Happy,0,0,Happy,660,1,High,579
68,1,0.75,E,0,High,0,Happy,40,0,Happy,1080,1,High,657
69,1,0.75,E,0,High,0,Happy,40,0,Happy,848,1,High,749
70,1,0.75,E,0,High,0,Happy,0,0,Happy,925,1,High,754
71,1,0.75,UE,1,Low,0,Happy,0,0,Happy,1357,1,High,694
72,1,0.75,E,1,Low,1,Sad,60,1,Sad,727,1,High,623
73,1,0.75,E,0,High,0,Happy,40,0,Happy,880,0,Low,704
74,1,0.75,E,1,Low,1,Sad,100,1,Sad,898,1,High,559
75,1,0.75,E,1,Low,1,Sad,100,1,Sad,669,1,High,637
76,1,0.75,E,0,High,0,Happy,20,0,Happy,722,1,High,563
77,1,0.75,UE,0,High,1,Sad,60,1,Sad,548,1,High,556
78,1,0.75,E,0,High,0,Happy,0,0,Happy,1005,1,High,513
79,1,0.75,E,0,High,0,Happy,40,0,Happy,994,0,Low,579
80,1,0.75,UE,0,High,1,Sad,60,1,Sad,1024,0,Low,654
81,1,0.75,E,0,High,0,Happy,40,0,Happy,2078,0,Low,545
82,1,0.75,UE,0,High,1,Sad,80,1,Sad,1001,1,High,497
83,1,0.75,E,0,High,0,Happy,0,0,Happy,803,1,High,665
84,1,0.75,E,0,High,0,Happy,20,0,Happy,661,1,High,502
85,1,0.75,E,1,Low,1,Sad,100,1,Sad,613,1,High,516
86,1,0.75,E,1,Low,1,Sad,100,1,Sad,680,1,High,414
87,1,0.75,UE,1,Low,0,Happy,40,0,Happy,756,1,High,450
88,1,0.75,E,1,Low,1,Sad,80,1,Sad,727,1,High,418
89,1,0.75,E,0,High,0,Happy,0,0,Happy,808,1,High,406
90,1,0.75,UE,0,High,1,Sad,60,1,Sad,748,1,High,435
91,1,0.75,E,1,Low,1,Sad,60,1,Sad,843,1,High,434
92,1,0.75,E,1,Low,1,Sad,80,1,Sad,534,1,High,350
93,1,0.75,E,0,High,0,Happy,20,0,Happy,617,1,High,411
94,1,0.75,E,0,High,0,Happy,20,0,Happy,619,1,High,350
95,1,0.75,UE,1,Low,0,Happy,40,0,Happy,780,0,Low,449
96,1,0.75,E,1,Low,1,Sad,80,1,Sad,642,1,High,386
97,2,0.25,E,1,Low,0,Happy,0,0,Happy,700,1,High,363
98,2,0.25,UE,1,Low,1,Sad,80,0,Happy,700,0,Low,1203
99,2,0.25,E,1,Low,0,Happy,40,0,Happy,890,0,Low,711
100,2,0.25,E,1,Low,0,Happy,40,0,Happy,1060,0,Low,729
101,2,0.25,E,0,High,1,Sad,60,1,Sad,874,1,High,735
102,2,0.25,E,1,Low,0,Happy,20,0,Happy,804,1,High,463
103,2,0.25,E,0,High,1,Sad,80,1,Sad,694,1,High,431
104,2,0.25,UE,1,Low,1,Sad,100,1,Sad,672,1,High,374
105,2,0.25,E,1,Low,0,Happy,20,0,Happy,641,1,High,491
106,2,0.25,UE,1,Low,1,Sad,60,1,Sad,1125,1,High,394
107,2,0.25,UE,0,High,0,Happy,20,0,Happy,817,1,High,425
108,2,0.25,E,0,High,1,Sad,100,1,Sad,595,1,High,352
109,2,0.25,E,1,Low,0,Happy,40,0,Happy,877,0,Low,656
110,2,0.25,E,0,High,1,Sad,80,1,Sad,797,1,High,791
111,2,0.25,E,0,High,1,Sad,60,1,Sad,778,1,High,350
112,2,0.25,E,1,Low,0,Happy,0,0,Happy,637,1,High,401
113,2,0.25,UE,0,High,0,Happy,40,0,Happy,854,0,Low,564
114,2,0.25,E,0,High,1,Sad,80,1,Sad,665,1,High,552
115,2,0.25,E,0,High,1,Sad,100,1,Sad,577,1,High,383
116,2,0.25,E,0,High,1,Sad,60,1,Sad,569,1,High,397
117,2,0.25,E,1,Low,0,Happy,0,0,Happy,631,1,High,379
118,2,0.25,E,1,Low,0,Happy,20,0,Happy,670,1,High,382
119,2,0.25,UE,0,High,0,Happy,0,0,Happy,761,1,High,363
120,2,0.25,E,0,High,1,Sad,100,1,Sad,580,1,High,353
121,3,0.75,E,0,High,0,Happy,0,0,Happy,685,1,High,475
122,3,0.75,E,0,High,0,Happy,40,0,Happy,966,0,Low,420
123,3,0.75,E,0,High,0,Happy,0,0,Happy,691,1,High,407
124,3,0.75,E,1,Low,1,Sad,80,1,Sad,654,1,High,361
125,3,0.75,E,1,Low,1,Sad,60,1,Sad,746,1,High,430
126,3,0.75,UE,0,High,1,Sad,100,1,Sad,828,1,High,248
127,3,0.75,E,0,High,0,Happy,20,0,Happy,711,1,High,532
128,3,0.75,E,0,High,0,Happy,40,0,Happy,943,1,High,344
129,3,0.75,UE,1,Low,0,Happy,20,0,Happy,840,1,High,552
130,3,0.75,E,1,Low,1,Sad,100,1,Sad,714,1,High,341
131,3,0.75,E,0,High,0,Happy,40,0,Happy,685,1,High,334
132,3,0.75,UE,1,Low,0,Happy,40,0,Happy,805,1,High,378
133,3,0.75,UE,0,High,1,Sad,60,1,Sad,1321,0,Low,390
134,3,0.75,E,1,Low,1,Sad,80,1,Sad,834,1,High,394
135,3,0.75,E,1,Low,1,Sad,60,1,Sad,789,1,High,430
136,3,0.75,E,1,Low,1,Sad,60,1,Sad,640,1,High,350
137,3,0.75,E,1,Low,1,Sad,100,1,Sad,551,1,High,306
138,3,0.75,UE,0,High,1,Sad,80,1,Sad,571,1,High,351
139,3,0.75,E,0,High,0,Happy,20,0,Happy,682,1,High,414
140,3,0.75,E,1,Low,1,Sad,80,1,Sad,647,1,High,334
141,3,0.75,E,1,Low,1,Sad,100,1,Sad,582,1,High,399
142,3,0.75,E,0,High,0,Happy,0,0,Happy,614,1,High,370
143,3,0.75,UE,1,Low,0,Happy,0,0,Happy,974,1,High,337
144,3,0.75,E,0,High,0,Happy,20,0,Happy,515,1,High,342
145,4,0.25,E,1,Low,0,Happy,0,0,Happy,642,1,High,349
146,4,0.25,E,1,Low,0,Happy,20,0,Happy,759,1,High,398
147,4,0.25,UE,1,Low,1,Sad,80,1,Sad,580,1,High,335
148,4,0.25,UE,0,High,0,Happy,40,0,Happy,654,1,High,387
149,4,0.25,E,0,High,1,Sad,80,1,Sad,502,1,High,304
150,4,0.25,E,0,High,1,Sad,60,1,Sad,638,1,High,294
151,4,0.25,E,1,Low,0,Happy,0,0,Happy,780,1,High,360
152,4,0.25,E,0,High,1,Sad,80,1,Sad,551,1,High,330
153,4,0.25,E,1,Low,0,Happy,40,1,Sad,1163,0,Low,511
154,4,0.25,E,0,High,1,Sad,100,1,Sad,660,1,High,428
155,4,0.25,E,0,High,1,Sad,100,1,Sad,611,1,High,313
156,4,0.25,E,0,High,1,Sad,80,1,Sad,539,1,High,301
157,4,0.25,E,1,Low,0,Happy,20,0,Happy,731,1,High,333
158,4,0.25,UE,0,High,0,Happy,20,0,Happy,760,1,High,301
159,4,0.25,E,0,High,1,Sad,60,1,Sad,593,1,High,313
160,4,0.25,E,1,Low,0,Happy,40,0,Happy,833,0,Low,806
161,4,0.25,E,1,Low,0,Happy,0,0,Happy,590,1,High,314
162,4,0.25,UE,1,Low,1,Sad,60,1,Sad,572,1,High,313
163,4,0.25,E,0,High,1,Sad,100,1,Sad,601,1,High,349
164,4,0.25,E,0,High,1,Sad,60,1,Sad,683,1,High,336
165,4,0.25,UE,0,High,0,Happy,0,0,Happy,546,1,High,323
166,4,0.25,E,1,Low,0,Happy,40,0,Happy,834,1,High,301
167,4,0.25,E,1,Low,0,Happy,20,0,Happy,568,1,High,351
168,4,0.25,UE,1,Low,1,Sad,100,1,Sad,526,1,High,301
169,5,0.75,E,0,High,0,Happy,20,0,Happy,578,1,High,303
170,5,0.75,UE,0,High,1,Sad,60,1,Sad,554,1,High,289
171,5,0.75,E,0,High,0,Happy,0,0,Happy,642,1,High,344
172,5,0.75,E,0,High,0,Happy,40,0,Happy,618,1,High,308
173,5,0.75,E,1,Low,1,Sad,60,1,Sad,599,1,High,270
174,5,0.75,E,1,Low,1,Sad,80,1,Sad,626,1,High,268
175,5,0.75,E,1,Low,1,Sad,60,1,Sad,603,1,High,264
176,5,0.75,E,0,High,0,Happy,20,0,Happy,519,1,High,321
177,5,0.75,E,1,Low,1,Sad,100,1,Sad,574,1,High,302
178,5,0.75,UE,1,Low,0,Happy,0,0,Happy,632,1,High,280
179,5,0.75,E,0,High,0,Happy,20,0,Happy,548,1,High,285
180,5,0.75,UE,1,Low,0,Happy,40,0,Happy,592,1,High,272
181,5,0.75,E,1,Low,1,Sad,60,1,Sad,511,1,High,237
182,5,0.75,E,0,High,0,Happy,40,0,Happy,478,1,High,285
183,5,0.75,E,1,Low,1,Sad,80,1,Sad,694,1,High,248
184,5,0.75,E,1,Low,1,Sad,80,1,Sad,659,1,High,237
185,5,0.75,UE,0,High,1,Sad,80,1,Sad,536,1,High,264
186,5,0.75,UE,0,High,1,Sad,100,1,Sad,462,1,High,241
187,5,0.75,E,0,High,0,Happy,0,0,Happy,621,1,High,297
188,5,0.75,E,1,Low,1,Sad,100,1,Sad,584,1,High,235
189,5,0.75,UE,1,Low,0,Happy,20,0,Happy,605,1,High,257
190,5,0.75,E,0,High,0,Happy,0,0,Happy,554,1,High,218
191,5,0.75,E,1,Low,1,Sad,100,1,Sad,479,1,High,248
192,5,0.75,E,0,High,0,Happy,40,0,Happy,567,1,High,292
