Trial_N,Block_N,Contingency,Expectedness,Cue_idx,Cue_name,Outcome_idx,Outcome_name,Outcome_p_sad,Response_idx,Response_name,Response_RT,Confidence_idx,Confidence_name,Confidence_RT
1,1,0.75,E,1,Low,1,Sad,80,NaN,,3999.6,0,,3999.2
2,1,0.75,E,1,Low,1,Sad,100,NaN,,3999.2,0,,3999.3
3,1,0.75,E,1,Low,1,Sad,80,1,Sad,3912.60000002384,1,High,1077.59999999404
4,1,0.75,E,0,High,0,Happy,20,0,Happy,988.699999988079,1,High,1095.59999999404
5,1,0.75,E,0,High,0,Happy,0,0,Happy,1188.30000001192,1,High,602.200000017881
6,1,0.75,UE,0,High,1,Sad,100,1,Sad,823.700000017881,1,High,1702.19999998808
7,1,0.75,E,1,Low,1,Sad,60,1,Sad,1086.69999998808,0,Low,1038.20000001788
8,1,0.75,E,0,High,0,Happy,20,0,Happy,1687.20000001788,1,High,622.09999999404
9,1,0.75,UE,1,Low,0,Happy,20,0,Happy,543.59999999404,1,High,480.199999988079
10,1,0.75,E,1,Low,1,Sad,100,1,Sad,455.200000017881,1,High,377.40000000596
11,1,0.75,E,1,Low,1,Sad,60,1,Sad,1855.39999997616,0,Low,425.5
12,1,0.75,E,0,High,0,Happy,40,0,Happy,758.199999988079,1,High,486.59999999404
13,1,0.75,E,1,Low,1,Sad,60,0,Happy,508.699999988079,1,High,1296.59999999404
14,1,0.75,E,1,Low,1,Sad,60,1,Sad,1051.80000001192,0,Low,807.199999988079
15,1,0.75,E,1,Low,1,Sad,60,1,Sad,745.40000000596,0,Low,495.90000000596
16,1,0.75,UE,0,High,1,Sad,80,1,Sad,749.90000000596,0,Low,587.199999988079
17,1,0.75,E,0,High,0,Happy,0,0,Happy,429,1,High,389.300000011921
18,1,0.75,E,0,High,0,Happy,20,0,Happy,456.200000017881,1,High,291.5
19,1,0.75,E,1,Low,1,Sad,80,1,Sad,743.700000017881,0,Low,456.5
20,1,0.75,E,0,High,0,Happy,0,0,Happy,1210.59999999404,1,High,306.600000023842
21,1,0.75,UE,0,High,1,Sad,100,1,Sad,992.700000017881,0,Low,392.800000011921
22,1,0.75,E,0,High,0,Happy,20,0,Happy,748.899999976158,1,High,444.299999982119
23,1,0.75,E,1,Low,1,Sad,60,1,Sad,858.300000011921,0,Low,913.40000000596
24,1,0.75,E,0,High,0,Happy,40,0,Happy,1068.29999998212,1,High,441.09999999404
25,1,0.75,UE,1,Low,0,Happy,0,0,Happy,666.199999988079,1,High,400.5
26,1,0.75,E,1,Low,1,Sad,80,1,Sad,733.09999999404,0,Low,535.09999999404
27,1,0.75,E,0,High,0,Happy,0,0,Happy,1064.5,1,High,337.199999988079
28,1,0.75,E,0,High,0,Happy,0,0,Happy,767.300000011921,1,High,379.100000023842
29,1,0.75,E,1,Low,1,Sad,60,1,Sad,723.200000017881,0,Low,603
30,1,0.75,E,1,Low,1,Sad,100,1,Sad,1145.30000001192,1,High,515.40000000596
31,1,0.75,UE,1,Low,0,Happy,40,0,Happy,645.59999999404,1,High,363.40000000596
32,1,0.75,UE,0,High,1,Sad,100,0,Happy,963.5,1,High,649.300000011921
33,1,0.75,E,0,High,0,Happy,40,0,Happy,543.59999999404,1,High,318.800000011921
34,1,0.75,E,0,High,0,Happy,40,0,Happy,494.199999988079,1,High,521.90000000596
35,1,0.75,E,1,Low,1,Sad,80,1,Sad,1154.29999998212,0,Low,358.699999988079
36,1,0.75,E,1,Low,1,Sad,60,1,Sad,980,0,Low,581.800000011921
37,1,0.75,E,0,High,0,Happy,40,0,Happy,704.800000011921,1,High,366.200000017881
38,1,0.75,UE,0,High,1,Sad,80,1,Sad,791.699999988079,0,Low,467.199999988079
39,1,0.75,E,1,Low,1,Sad,60,0,Happy,610.399999976158,1,High,334.799999982119
40,1,0.75,E,0,High,0,Happy,40,0,Happy,578.5,1,High,337.100000023842
41,1,0.75,UE,1,Low,0,Happy,20,0,Happy,495.40000000596,1,High,348.59999999404
42,1,0.75,E,0,High,0,Happy,20,0,Happy,458.09999999404,1,High,403.09999999404
43,1,0.75,E,1,Low,1,Sad,100,1,Sad,547.899999976158,1,High,649.5
44,1,0.75,UE,0,High,1,Sad,80,1,Sad,627.40000000596,1,High,436.5
45,1,0.75,E,1,Low,1,Sad,100,1,Sad,567.699999988079,1,High,443.5
46,1,0.75,E,0,High,0,Happy,0,0,Happy,533.09999999404,1,High,345.399999976158
47,1,0.75,E,1,Low,1,Sad,80,1,Sad,581.59999999404,0,Low,979.59999999404
48,1,0.75,UE,1,Low,0,Happy,20,0,Happy,630.09999999404,1,High,374.600000023842
49,1,0.75,E,0,High,0,Happy,0,0,Happy,429.199999988079,1,High,381.200000017881
50,1,0.75,E,1,Low,1,Sad,80,1,Sad,1143.39999997616,0,Low,655.5
51,1,0.75,E,0,High,0,Happy,20,0,Happy,568.399999976158,1,High,360.09999999404
52,1,0.75,UE,0,High,1,Sad,60,1,Sad,829.40000000596,0,Low,607.299999982119
53,1,0.75,UE,1,Low,0,Happy,0,0,Happy,488.800000011921,1,High,337.40000000596
54,1,0.75,E,1,Low,1,Sad,100,1,Sad,621,1,High,395.90000000596
55,1,0.75,E,1,Low,1,Sad,100,1,Sad,543.800000011921,1,High,382.600000023842
56,1,0.75,E,0,High,0,Happy,0,0,Happy,439.800000011921,1,High,351.799999982119
57,1,0.75,E,1,Low,1,Sad,100,1,Sad,525.800000011921,1,High,403
58,1,0.75,UE,0,High,1,Sad,100,1,Sad,531.200000017881,1,High,389.90000000596
59,1,0.75,E,1,Low,1,Sad,80,1,Sad,461.300000011921,1,High,631.59999999404
60,1,0.75,E,0,High,0,Happy,20,0,Happy,815.200000017881,1,High,304
61,1,0.75,UE,1,Low,0,Happy,40,0,Happy,463.699999988079,1,High,311.699999988079
62,1,0.75,UE,1,Low,0,Happy,20,0,Happy,391.799999982119,1,High,321.59999999404
63,1,0.75,E,0,High,0,Happy,20,0,Happy,410,1,High,380.200000017881
64,1,0.75,E,1,Low,1,Sad,60,1,Sad,1111.90000000596,1,High,527.200000017881
65,1,0.75,E,0,High,0,Happy,40,0,Happy,566.200000017881,1,High,306.700000017881
66,1,0.75,E,1,Low,1,Sad,80,1,Sad,525.59999999404,1,High,869.59999999404
67,1,0.75,UE,1,Low,0,Happy,0,0,Happy,611.59999999404,1,High,338.5
68,1,0.75,E,0,High,0,Happy,40,0,Happy,927.600000023842,1,High,355.09999999404
69,1,0.75,E,0,High,0,Happy,40,0,Happy,464.800000011921,1,High,391.09999999404
70,1,0.75,E,0,High,0,Happy,0,0,Happy,442.799999982119,1,High,398.799999982119
71,1,0.75,UE,1,Low,0,Happy,0,0,Happy,471.300000011921,1,High,464.199999988079
72,1,0.75,E,1,Low,1,Sad,60,1,Sad,691.300000011921,0,Low,650.300000011921
73,1,0.75,E,0,High,0,Happy,40,0,Happy,410.300000011921,1,High,343.199999988079
74,1,0.75,E,1,Low,1,Sad,100,1,Sad,532.899999976158,1,High,364.5
75,1,0.75,E,1,Low,1,Sad,100,1,Sad,558.299999982119,1,High,455.90000000596
76,1,0.75,E,0,High,0,Happy,20,0,Happy,432.5,1,High,378.5
77,1,0.75,UE,0,High,1,Sad,60,0,Happy,547.899999976158,1,High,342.600000023842
78,1,0.75,E,0,High,0,Happy,0,0,Happy,381.800000011921,1,High,369.699999988079
79,1,0.75,E,0,High,0,Happy,40,0,Happy,508.300000011921,1,High,369.40000000596
80,1,0.75,UE,0,High,1,Sad,60,1,Sad,675.699999988079,0,Low,550.299999982119
81,1,0.75,E,0,High,0,Happy,40,0,Happy,387.300000011921,1,High,355.09999999404
82,1,0.75,UE,0,High,1,Sad,80,1,Sad,535.59999999404,1,High,480.199999988079
83,1,0.75,E,0,High,0,Happy,0,0,Happy,476.300000011921,1,High,360.199999988079
84,1,0.75,E,0,High,0,Happy,20,0,Happy,397.300000011921,1,High,376.399999976158
85,1,0.75,E,1,Low,1,Sad,100,1,Sad,578.800000011921,1,High,383.199999988079
86,1,0.75,E,1,Low,1,Sad,100,1,Sad,387.09999999404,1,High,376.09999999404
87,1,0.75,UE,1,Low,0,Happy,40,0,Happy,423.800000011921,1,High,346.199999988079
88,1,0.75,E,1,Low,1,Sad,80,1,Sad,604.799999982119,0,Low,609.59999999404
89,1,0.75,E,0,High,0,Happy,0,0,Happy,335.300000011921,1,High,354.200000017881
90,1,0.75,UE,0,High,1,Sad,60,0,Happy,426.09999999404,1,High,335.59999999404
91,1,0.75,E,1,Low,1,Sad,60,0,Happy,842.100000023842,1,High,347
92,1,0.75,E,1,Low,1,Sad,80,1,Sad,663.299999982119,0,Low,628.5
93,1,0.75,E,0,High,0,Happy,20,0,Happy,347.100000023842,1,High,353.40000000596
94,1,0.75,E,0,High,0,Happy,20,0,Happy,462.600000023842,1,High,329.5
95,1,0.75,UE,1,Low,0,Happy,40,0,Happy,455.09999999404,1,High,340.800000011921
96,1,0.75,E,1,Low,1,Sad,80,1,Sad,475.399999976158,0,Low,540.40000000596
97,2,0.25,E,1,Low,0,Happy,0,0,Happy,325.5,1,High,319.200000017881
98,2,0.25,UE,1,Low,1,Sad,80,1,Sad,665.40000000596,0,Low,429.200000017881
99,2,0.25,E,1,Low,0,Happy,40,0,Happy,437.09999999404,1,High,341.40000000596
100,2,0.25,E,1,Low,0,Happy,40,0,Happy,582.59999999404,1,High,329.699999988079
101,2,0.25,E,0,High,1,Sad,60,1,Sad,1399.09999999404,0,Low,360.5
102,2,0.25,E,1,Low,0,Happy,20,0,Happy,783.699999988079,1,High,290
103,2,0.25,E,0,High,1,Sad,80,1,Sad,748.199999988079,0,Low,366
104,2,0.25,UE,1,Low,1,Sad,100,1,Sad,963.200000017881,1,High,331.199999988079
105,2,0.25,E,1,Low,0,Happy,20,0,Happy,374.09999999404,1,High,297.90000000596
106,2,0.25,UE,1,Low,1,Sad,60,0,Happy,514.40000000596,1,High,305.699999988079
107,2,0.25,UE,0,High,0,Happy,20,0,Happy,476.59999999404,1,High,374
108,2,0.25,E,0,High,1,Sad,100,1,Sad,622.09999999404,1,High,585
109,2,0.25,E,1,Low,0,Happy,40,0,Happy,469.5,1,High,358.899999976158
110,2,0.25,E,0,High,1,Sad,80,1,Sad,1472.20000001788,0,Low,647.40000000596
111,2,0.25,E,0,High,1,Sad,60,0,Happy,1759.30000001192,0,Low,352.90000000596
112,2,0.25,E,1,Low,0,Happy,0,0,Happy,415.800000011921,1,High,294.199999988079
113,2,0.25,UE,0,High,0,Happy,40,0,Happy,377.09999999404,1,High,289.90000000596
114,2,0.25,E,0,High,1,Sad,80,1,Sad,846.299999982119,0,Low,385.699999988079
115,2,0.25,E,0,High,1,Sad,100,1,Sad,578.300000011921,1,High,644.899999976158
116,2,0.25,E,0,High,1,Sad,60,0,Happy,460.699999988079,1,High,379.40000000596
117,2,0.25,E,1,Low,0,Happy,0,0,Happy,388.200000017881,1,High,343.5
118,2,0.25,E,1,Low,0,Happy,20,0,Happy,351.699999988079,1,High,324.699999988079
119,2,0.25,UE,0,High,0,Happy,0,0,Happy,355,1,High,330.600000023842
120,2,0.25,E,0,High,1,Sad,100,1,Sad,803.5,1,High,491.199999988079
121,3,0.75,E,0,High,0,Happy,0,0,Happy,1198.19999998808,1,High,300.699999988079
122,3,0.75,E,0,High,0,Happy,40,0,Happy,438.700000017881,1,High,370.800000011921
123,3,0.75,E,0,High,0,Happy,0,0,Happy,428.5,1,High,365.90000000596
124,3,0.75,E,1,Low,1,Sad,80,1,Sad,587,1,High,727.5
125,3,0.75,E,1,Low,1,Sad,60,1,Sad,758.699999988079,0,Low,415.5
126,3,0.75,UE,0,High,1,Sad,100,1,Sad,573.90000000596,1,High,359.799999982119
127,3,0.75,E,0,High,0,Happy,20,0,Happy,534.699999988079,1,High,360.700000017881
128,3,0.75,E,0,High,0,Happy,40,0,Happy,371.799999982119,1,High,378.300000011921
129,3,0.75,UE,1,Low,0,Happy,20,0,Happy,467.59999999404,1,High,381.200000017881
130,3,0.75,E,1,Low,1,Sad,100,1,Sad,672.799999982119,1,High,383.59999999404
131,3,0.75,E,0,High,0,Happy,40,0,Happy,514.199999988079,1,High,277.699999988079
132,3,0.75,UE,1,Low,0,Happy,40,0,Happy,395.90000000596,1,High,329.799999982119
133,3,0.75,UE,0,High,1,Sad,60,0,Happy,719.299999982119,1,High,314.90000000596
134,3,0.75,E,1,Low,1,Sad,80,0,Happy,770,1,High,358.799999982119
135,3,0.75,E,1,Low,1,Sad,60,0,Happy,756.199999988079,1,High,384.699999988079
136,3,0.75,E,1,Low,1,Sad,60,0,Happy,633.40000000596,1,High,354.90000000596
137,3,0.75,E,1,Low,1,Sad,100,1,Sad,708.90000000596,1,High,334
138,3,0.75,UE,0,High,1,Sad,80,1,Sad,607.40000000596,1,High,433.700000017881
139,3,0.75,E,0,High,0,Happy,20,0,Happy,439.700000017881,1,High,329.299999982119
140,3,0.75,E,1,Low,1,Sad,80,1,Sad,629.399999976158,1,High,727.299999982119
141,3,0.75,E,1,Low,1,Sad,100,1,Sad,400.09999999404,1,High,336.199999988079
142,3,0.75,E,0,High,0,Happy,0,0,Happy,335.700000017881,1,High,352.5
143,3,0.75,UE,1,Low,0,Happy,0,0,Happy,338.90000000596,1,High,338
144,3,0.75,E,0,High,0,Happy,20,0,Happy,291.90000000596,1,High,314.90000000596
145,4,0.25,E,1,Low,0,Happy,0,0,Happy,325.800000011921,1,High,285
146,4,0.25,E,1,Low,0,Happy,20,0,Happy,366.199999988079,1,High,286.199999988079
147,4,0.25,UE,1,Low,1,Sad,80,1,Sad,484.09999999404,1,High,422.299999982119
148,4,0.25,UE,0,High,0,Happy,40,1,Sad,467.59999999404,0,Low,1617
149,4,0.25,E,0,High,1,Sad,80,1,Sad,586.5,1,High,340.59999999404
150,4,0.25,E,0,High,1,Sad,60,1,Sad,852.40000000596,0,Low,331.600000023842
151,4,0.25,E,1,Low,0,Happy,0,0,Happy,307.59999999404,1,High,321.5
152,4,0.25,E,0,High,1,Sad,80,1,Sad,599,1,High,539.800000011921
153,4,0.25,E,1,Low,0,Happy,40,1,Sad,1466.90000000596,0,Low,336
154,4,0.25,E,0,High,1,Sad,100,1,Sad,552.5,1,High,301.700000017881
155,4,0.25,E,0,High,1,Sad,100,1,Sad,426.299999982119,1,High,374.699999988079
156,4,0.25,E,0,High,1,Sad,80,1,Sad,448.799999982119,1,High,337.299999982119
157,4,0.25,E,1,Low,0,Happy,20,0,Happy,456.09999999404,1,High,333.300000011921
158,4,0.25,UE,0,High,0,Happy,20,0,Happy,563.90000000596,1,High,309.40000000596
159,4,0.25,E,0,High,1,Sad,60,0,Happy,613.799999982119,1,High,297.399999976158
160,4,0.25,E,1,Low,0,Happy,40,0,Happy,496.40000000596,1,High,316.5
161,4,0.25,E,1,Low,0,Happy,0,0,Happy,357.800000011921,1,High,307.200000017881
162,4,0.25,UE,1,Low,1,Sad,60,1,Sad,1662.70000001788,0,Low,409.5
163,4,0.25,E,0,High,1,Sad,100,1,Sad,466,1,High,306.899999976158
164,4,0.25,E,0,High,1,Sad,60,1,Sad,526.5,1,High,347.300000011921
165,4,0.25,UE,0,High,0,Happy,0,0,Happy,462.40000000596,1,High,312.899999976158
166,4,0.25,E,1,Low,0,Happy,40,0,Happy,496,1,High,290
167,4,0.25,E,1,Low,0,Happy,20,0,Happy,344.100000023842,1,High,319.200000017881
168,4,0.25,UE,1,Low,1,Sad,100,1,Sad,449.09999999404,1,High,696.699999988079
169,5,0.75,E,0,High,0,Happy,20,0,Happy,408.5,1,High,325.699999988079
170,5,0.75,UE,0,High,1,Sad,60,1,Sad,1114.29999998212,0,Low,305.800000011921
171,5,0.75,E,0,High,0,Happy,0,0,Happy,412.299999982119,1,High,316.300000011921
172,5,0.75,E,0,High,0,Happy,40,0,Happy,394.299999982119,1,High,410.199999988079
173,5,0.75,E,1,Low,1,Sad,60,0,Happy,484.5,1,High,306.700000017881
174,5,0.75,E,1,Low,1,Sad,80,1,Sad,519.59999999404,1,High,315.100000023842
175,5,0.75,E,1,Low,1,Sad,60,1,Sad,811.59999999404,0,Low,478.199999988079
176,5,0.75,E,0,High,0,Happy,20,0,Happy,334.199999988079,1,High,299.700000017881
177,5,0.75,E,1,Low,1,Sad,100,1,Sad,497.799999982119,1,High,317
178,5,0.75,UE,1,Low,0,Happy,0,0,Happy,694.600000023842,1,High,253.40000000596
179,5,0.75,E,0,High,0,Happy,20,0,Happy,411.90000000596,1,High,291.5
180,5,0.75,UE,1,Low,0,Happy,40,0,Happy,366.700000017881,1,High,300.5
181,5,0.75,E,1,Low,1,Sad,60,1,Sad,1057.5,0,Low,344.09999999404
182,5,0.75,E,0,High,0,Happy,40,1,Sad,747.90000000596,0,Low,851.199999988079
183,5,0.75,E,1,Low,1,Sad,80,1,Sad,514.700000017881,1,High,292.300000011921
184,5,0.75,E,1,Low,1,Sad,80,1,Sad,516.799999982119,1,High,376.40000000596
185,5,0.75,UE,0,High,1,Sad,80,1,Sad,429,1,High,310.800000011921
186,5,0.75,UE,0,High,1,Sad,100,1,Sad,556.90000000596,1,High,363.200000017881
187,5,0.75,E,0,High,0,Happy,0,0,Happy,365.90000000596,1,High,295.699999988079
188,5,0.75,E,1,Low,1,Sad,100,1,Sad,550.199999988079,1,High,292.90000000596
189,5,0.75,UE,1,Low,0,Happy,20,0,Happy,597.40000000596,1,High,295.09999999404
190,5,0.75,E,0,High,0,Happy,0,0,Happy,363.800000011921,1,High,306.700000017881
191,5,0.75,E,1,Low,1,Sad,100,1,Sad,469.700000017881,1,High,298.90000000596
192,5,0.75,E,0,High,0,Happy,40,1,Sad,705,0,Low,1074
