Trial_N,Block_N,Contingency,Expectedness,Cue_idx,Cue_name,Outcome_idx,Outcome_name,Outcome_p_sad,Response_idx,Response_name,Response_RT,Confidence_idx,Confidence_name,Confidence_RT
1,1,0.75,E,1,Low,1,Sad,80,1,Sad,1560.5,1,High,1583.40000000596
2,1,0.75,E,1,Low,1,Sad,100,1,Sad,642.300000011921,1,High,397.799999982119
3,1,0.75,E,1,Low,1,Sad,80,1,Sad,463.300000011921,1,High,388.299999982119
4,1,0.75,E,0,High,0,Happy,20,0,Happy,424.5,1,High,261.40000000596
5,1,0.75,E,0,High,0,Happy,0,0,Happy,185.59999999404,1,High,238.399999976158
6,1,0.75,UE,0,High,1,Sad,100,1,Sad,576.90000000596,1,High,521.800000011921
7,1,0.75,E,1,Low,1,Sad,60,1,Sad,852.5,1,High,406.699999988079
8,1,0.75,E,0,High,0,Happy,20,0,Happy,459.800000011921,1,High,151.199999988079
9,1,0.75,UE,1,Low,0,Happy,20,0,Happy,439.699999988079,1,High,142.199999988079
10,1,0.75,E,1,Low,1,Sad,100,1,Sad,464.09999999404,1,High,159.700000017881
11,1,0.75,E,1,Low,1,Sad,60,1,Sad,559.90000000596,1,High,246.700000017881
12,1,0.75,E,0,High,0,Happy,40,0,Happy,515.40000000596,1,High,159.90000000596
13,1,0.75,E,1,Low,1,Sad,60,1,Sad,956,1,High,258.5
14,1,0.75,E,1,Low,1,Sad,60,1,Sad,438.90000000596,1,High,232.300000011921
15,1,0.75,E,1,Low,1,Sad,60,1,Sad,381.5,1,High,236.299999982119
16,1,0.75,UE,0,High,1,Sad,80,0,Happy,329.59999999404,0,Low,1219.40000000596
17,1,0.75,E,0,High,0,Happy,0,0,Happy,466.59999999404,1,High,161.09999999404
18,1,0.75,E,0,High,0,Happy,20,0,Happy,496.299999982119,1,High,142.300000011921
19,1,0.75,E,1,Low,1,Sad,80,1,Sad,410,1,High,222.699999988079
20,1,0.75,E,0,High,0,Happy,0,1,Sad,433.799999982119,0,Low,1403.69999998808
21,1,0.75,UE,0,High,1,Sad,100,1,Sad,857.299999982119,1,High,271.700000017881
22,1,0.75,E,0,High,0,Happy,20,0,Happy,555.5,1,High,342.199999988079
23,1,0.75,E,1,Low,1,Sad,60,1,Sad,583.40000000596,1,High,215.399999976158
24,1,0.75,E,0,High,0,Happy,40,1,Sad,709,1,High,194.59999999404
25,1,0.75,UE,1,Low,0,Happy,0,0,Happy,293.40000000596,1,High,261.600000023842
26,1,0.75,E,1,Low,1,Sad,80,1,Sad,467.5,1,High,211.09999999404
27,1,0.75,E,0,High,0,Happy,0,0,Happy,478.699999988079,1,High,170.40000000596
28,1,0.75,E,0,High,0,Happy,0,0,Happy,365,1,High,148.300000011921
29,1,0.75,E,1,Low,1,Sad,60,1,Sad,376,1,High,214.299999982119
30,1,0.75,E,1,Low,1,Sad,100,1,Sad,223.399999976158,1,High,190.40000000596
31,1,0.75,UE,1,Low,0,Happy,40,1,Sad,501.5,1,High,218.5
32,1,0.75,UE,0,High,1,Sad,100,1,Sad,500.09999999404,1,High,172.5
33,1,0.75,E,0,High,0,Happy,40,0,Happy,435.40000000596,1,High,138.800000011921
34,1,0.75,E,0,High,0,Happy,40,0,Happy,289.299999982119,1,High,203.90000000596
35,1,0.75,E,1,Low,1,Sad,80,1,Sad,665.800000011921,1,High,205.199999988079
36,1,0.75,E,1,Low,1,Sad,60,1,Sad,1028,1,High,207.799999982119
37,1,0.75,E,0,High,0,Happy,40,1,Sad,1129.20000001788,0,Low,415.799999982119
38,1,0.75,UE,0,High,1,Sad,80,1,Sad,755.299999982119,1,High,209.199999988079
39,1,0.75,E,1,Low,1,Sad,60,1,Sad,1259.69999998808,0,Low,292.399999976158
40,1,0.75,E,0,High,0,Happy,40,0,Happy,642.59999999404,1,High,171.5
41,1,0.75,UE,1,Low,0,Happy,20,0,Happy,542.5,1,High,141.59999999404
42,1,0.75,E,0,High,0,Happy,20,0,Happy,612.5,1,High,261.09999999404
43,1,0.75,E,1,Low,1,Sad,100,1,Sad,453.799999982119,1,High,242.09999999404
44,1,0.75,UE,0,High,1,Sad,80,1,Sad,433.40000000596,1,High,266.699999988079
45,1,0.75,E,1,Low,1,Sad,100,1,Sad,353.40000000596,1,High,239.399999976158
46,1,0.75,E,0,High,0,Happy,0,0,Happy,512.09999999404,1,High,192.799999982119
47,1,0.75,E,1,Low,1,Sad,80,1,Sad,286.800000011921,1,High,253.5
48,1,0.75,UE,1,Low,0,Happy,20,0,Happy,450.199999988079,1,High,167.800000011921
49,1,0.75,E,0,High,0,Happy,0,0,Happy,282.700000017881,1,High,208.5
50,1,0.75,E,1,Low,1,Sad,80,1,Sad,325.59999999404,1,High,208.799999982119
51,1,0.75,E,0,High,0,Happy,20,0,Happy,443.600000023842,1,High,157.300000011921
52,1,0.75,UE,0,High,1,Sad,60,1,Sad,501.90000000596,1,High,195
53,1,0.75,UE,1,Low,0,Happy,0,0,Happy,376,1,High,213.40000000596
54,1,0.75,E,1,Low,1,Sad,100,1,Sad,529.800000011921,1,High,197.40000000596
55,1,0.75,E,1,Low,1,Sad,100,1,Sad,461.40000000596,1,High,202.200000017881
56,1,0.75,E,0,High,0,Happy,0,0,Happy,278.699999988079,1,High,223.600000023842
57,1,0.75,E,1,Low,1,Sad,100,1,Sad,444.800000011921,1,High,231.09999999404
58,1,0.75,UE,0,High,1,Sad,100,1,Sad,336,1,High,205.5
59,1,0.75,E,1,Low,1,Sad,80,1,Sad,468.59999999404,1,High,201.399999976158
60,1,0.75,E,0,High,0,Happy,20,0,Happy,387.09999999404,1,High,194.200000017881
61,1,0.75,UE,1,Low,0,Happy,40,0,Happy,532.5,1,High,188
62,1,0.75,UE,1,Low,0,Happy,20,1,Sad,260.59999999404,1,High,220.799999982119
63,1,0.75,E,0,High,0,Happy,20,0,Happy,697,1,High,130.700000017881
64,1,0.75,E,1,Low,1,Sad,60,1,Sad,589.399999976158,1,High,186
65,1,0.75,E,0,High,0,Happy,40,1,Sad,370.200000017881,1,High,324.699999988079
66,1,0.75,E,1,Low,1,Sad,80,1,Sad,764.699999988079,1,High,228.5
67,1,0.75,UE,1,Low,0,Happy,0,0,Happy,383.59999999404,1,High,187.200000017881
68,1,0.75,E,0,High,0,Happy,40,0,Happy,444.5,0,Low,704.199999988079
69,1,0.75,E,0,High,0,Happy,40,0,Happy,340.300000011921,0,Low,263.300000011921
70,1,0.75,E,0,High,0,Happy,0,0,Happy,553.699999988079,1,High,166.09999999404
71,1,0.75,UE,1,Low,0,Happy,0,0,Happy,441,1,High,298.799999982119
72,1,0.75,E,1,Low,1,Sad,60,1,Sad,490.40000000596,0,Low,530.5
73,1,0.75,E,0,High,0,Happy,40,1,Sad,928,1,High,691.300000011921
74,1,0.75,E,1,Low,1,Sad,100,1,Sad,493.899999976158,1,High,141
75,1,0.75,E,1,Low,1,Sad,100,1,Sad,516.90000000596,1,High,500.90000000596
76,1,0.75,E,0,High,0,Happy,20,0,Happy,375,1,High,167.5
77,1,0.75,UE,0,High,1,Sad,60,1,Sad,511.90000000596,1,High,181.5
78,1,0.75,E,0,High,0,Happy,0,0,Happy,581.700000017881,1,High,187.200000017881
79,1,0.75,E,0,High,0,Happy,40,0,Happy,1161.90000000596,0,Low,674.90000000596
80,1,0.75,UE,0,High,1,Sad,60,0,Happy,662.699999988079,0,Low,1224
81,1,0.75,E,0,High,0,Happy,40,0,Happy,685.300000011921,0,Low,454.299999982119
82,1,0.75,UE,0,High,1,Sad,80,1,Sad,481,0,Low,203.59999999404
83,1,0.75,E,0,High,0,Happy,0,0,Happy,486.90000000596,1,High,152.299999982119
84,1,0.75,E,0,High,0,Happy,20,0,Happy,693.5,1,High,271.699999988079
85,1,0.75,E,1,Low,1,Sad,100,1,Sad,472.59999999404,1,High,204.800000011921
86,1,0.75,E,1,Low,1,Sad,100,1,Sad,413.600000023842,1,High,197.300000011921
87,1,0.75,UE,1,Low,0,Happy,40,0,Happy,504,1,High,411.5
88,1,0.75,E,1,Low,1,Sad,80,1,Sad,660.600000023842,1,High,278.800000011921
89,1,0.75,E,0,High,0,Happy,0,0,Happy,455.5,1,High,145.5
90,1,0.75,UE,0,High,1,Sad,60,1,Sad,441.199999988079,1,High,218.399999976158
91,1,0.75,E,1,Low,1,Sad,60,1,Sad,891.40000000596,0,Low,257.90000000596
92,1,0.75,E,1,Low,1,Sad,80,1,Sad,673,1,High,220
93,1,0.75,E,0,High,0,Happy,20,0,Happy,439.5,1,High,242.700000017881
94,1,0.75,E,0,High,0,Happy,20,0,Happy,586.299999982119,1,High,210.09999999404
95,1,0.75,UE,1,Low,0,Happy,40,0,Happy,1350,0,Low,223
96,1,0.75,E,1,Low,1,Sad,80,1,Sad,456.299999982119,1,High,236.199999988079
97,2,0.25,E,1,Low,0,Happy,0,0,Happy,432.799999982119,1,High,151.59999999404
98,2,0.25,UE,1,Low,1,Sad,80,1,Sad,550,1,High,202.09999999404
99,2,0.25,E,1,Low,0,Happy,40,0,Happy,1443,0,Low,584.300000011921
100,2,0.25,E,1,Low,0,Happy,40,0,Happy,679.299999982119,0,Low,194.40000000596
101,2,0.25,E,0,High,1,Sad,60,1,Sad,984.90000000596,1,High,405.40000000596
102,2,0.25,E,1,Low,0,Happy,20,0,Happy,972.59999999404,1,High,325.300000011921
103,2,0.25,E,0,High,1,Sad,80,1,Sad,989.09999999404,1,High,871.40000000596
104,2,0.25,UE,1,Low,1,Sad,100,1,Sad,455.5,1,High,194.199999988079
105,2,0.25,E,1,Low,0,Happy,20,0,Happy,865.800000011921,1,High,799
106,2,0.25,UE,1,Low,1,Sad,60,1,Sad,675.40000000596,0,Low,337
107,2,0.25,UE,0,High,0,Happy,20,0,Happy,569.800000011921,1,High,237.5
108,2,0.25,E,0,High,1,Sad,100,1,Sad,444.200000017881,1,High,209.199999988079
109,2,0.25,E,1,Low,0,Happy,40,0,Happy,1115.40000000596,0,Low,482.300000011921
110,2,0.25,E,0,High,1,Sad,80,1,Sad,507.199999988079,1,High,274.200000017881
111,2,0.25,E,0,High,1,Sad,60,1,Sad,497.700000017881,1,High,651.90000000596
112,2,0.25,E,1,Low,0,Happy,0,0,Happy,541.799999982119,1,High,160
113,2,0.25,UE,0,High,0,Happy,40,0,Happy,809.5,0,Low,313.40000000596
114,2,0.25,E,0,High,1,Sad,80,1,Sad,495.799999982119,1,High,283.100000023842
115,2,0.25,E,0,High,1,Sad,100,1,Sad,501,1,High,311.299999982119
116,2,0.25,E,0,High,1,Sad,60,1,Sad,482,1,High,389.5
117,2,0.25,E,1,Low,0,Happy,0,0,Happy,433,1,High,271.09999999404
118,2,0.25,E,1,Low,0,Happy,20,0,Happy,397.799999982119,1,High,281.09999999404
119,2,0.25,UE,0,High,0,Happy,0,0,Happy,475.40000000596,1,High,304.899999976158
120,2,0.25,E,0,High,1,Sad,100,1,Sad,402.59999999404,1,High,294.199999988079
121,3,0.75,E,0,High,0,Happy,0,0,Happy,463.800000011921,1,High,308.899999976158
122,3,0.75,E,0,High,0,Happy,40,0,Happy,758.800000011921,0,Low,463.40000000596
123,3,0.75,E,0,High,0,Happy,0,0,Happy,368.40000000596,1,High,236.5
124,3,0.75,E,1,Low,1,Sad,80,1,Sad,388.5,1,High,192.59999999404
125,3,0.75,E,1,Low,1,Sad,60,1,Sad,329.699999988079,1,High,216.300000011921
126,3,0.75,UE,0,High,1,Sad,100,1,Sad,376,1,High,188.90000000596
127,3,0.75,E,0,High,0,Happy,20,0,Happy,426.300000011921,1,High,190.800000011921
128,3,0.75,E,0,High,0,Happy,40,0,Happy,560.699999988079,0,Low,414.299999982119
129,3,0.75,UE,1,Low,0,Happy,20,0,Happy,645.5,1,High,192
130,3,0.75,E,1,Low,1,Sad,100,1,Sad,509.59999999404,1,High,127.5
131,3,0.75,E,0,High,0,Happy,40,0,Happy,482.700000017881,1,High,247.699999988079
132,3,0.75,UE,1,Low,0,Happy,40,0,Happy,859.800000011921,0,Low,182.90000000596
133,3,0.75,UE,0,High,1,Sad,60,1,Sad,576.799999982119,1,High,445.300000011921
134,3,0.75,E,1,Low,1,Sad,80,1,Sad,358.40000000596,1,High,205.699999988079
135,3,0.75,E,1,Low,1,Sad,60,1,Sad,266.09999999404,1,High,214.700000017881
136,3,0.75,E,1,Low,1,Sad,60,1,Sad,374.59999999404,1,High,192.800000011921
137,3,0.75,E,1,Low,1,Sad,100,1,Sad,244.200000017881,1,High,150.699999988079
138,3,0.75,UE,0,High,1,Sad,80,1,Sad,386.799999982119,1,High,173.699999988079
139,3,0.75,E,0,High,0,Happy,20,0,Happy,571.59999999404,1,High,202.40000000596
140,3,0.75,E,1,Low,1,Sad,80,1,Sad,1421.40000000596,1,High,223.5
141,3,0.75,E,1,Low,1,Sad,100,1,Sad,374.700000017881,1,High,151
142,3,0.75,E,0,High,0,Happy,0,0,Happy,434.600000023842,1,High,170.699999988079
143,3,0.75,UE,1,Low,0,Happy,0,0,Happy,679.5,1,High,138.5
144,3,0.75,E,0,High,0,Happy,20,0,Happy,475.700000017881,1,High,113
145,4,0.25,E,1,Low,0,Happy,0,0,Happy,536.300000011921,1,High,170.200000017881
146,4,0.25,E,1,Low,0,Happy,20,0,Happy,392,1,High,82
147,4,0.25,UE,1,Low,1,Sad,80,1,Sad,347.09999999404,1,High,151
148,4,0.25,UE,0,High,0,Happy,40,0,Happy,1461.30000001192,0,Low,410.199999988079
149,4,0.25,E,0,High,1,Sad,80,1,Sad,402.59999999404,1,High,169
150,4,0.25,E,0,High,1,Sad,60,1,Sad,344.800000011921,1,High,179.09999999404
151,4,0.25,E,1,Low,0,Happy,0,0,Happy,482.199999988079,1,High,148.5
152,4,0.25,E,0,High,1,Sad,80,1,Sad,366.700000017881,1,High,127.699999988079
153,4,0.25,E,1,Low,0,Happy,40,0,Happy,2492.90000000596,0,Low,60.7999999821186
154,4,0.25,E,0,High,1,Sad,100,1,Sad,385.90000000596,1,High,170.899999976158
155,4,0.25,E,0,High,1,Sad,100,1,Sad,451.5,1,High,172.100000023842
156,4,0.25,E,0,High,1,Sad,80,1,Sad,511.300000011921,1,High,149.800000011921
157,4,0.25,E,1,Low,0,Happy,20,0,Happy,720.700000017881,1,High,158.59999999404
158,4,0.25,UE,0,High,0,Happy,20,0,Happy,600.09999999404,1,High,173.5
159,4,0.25,E,0,High,1,Sad,60,1,Sad,317.59999999404,1,High,170.5
160,4,0.25,E,1,Low,0,Happy,40,1,Sad,1736.19999998808,0,Low,157.09999999404
161,4,0.25,E,1,Low,0,Happy,0,0,Happy,630.09999999404,1,High,208.5
162,4,0.25,UE,1,Low,1,Sad,60,0,Happy,2892.90000000596,0,Low,216.59999999404
163,4,0.25,E,0,High,1,Sad,100,1,Sad,491.40000000596,1,High,169.09999999404
164,4,0.25,E,0,High,1,Sad,60,1,Sad,1183.30000001192,0,Low,555.59999999404
165,4,0.25,UE,0,High,0,Happy,0,0,Happy,473.90000000596,1,High,522.699999988079
166,4,0.25,E,1,Low,0,Happy,40,0,Happy,1133.80000001192,0,Low,232.199999988079
167,4,0.25,E,1,Low,0,Happy,20,0,Happy,519.299999982119,1,High,284.09999999404
168,4,0.25,UE,1,Low,1,Sad,100,1,Sad,383.59999999404,1,High,189.700000017881
169,5,0.75,E,0,High,0,Happy,20,0,Happy,430.90000000596,1,High,132.600000023842
170,5,0.75,UE,0,High,1,Sad,60,0,Happy,495.59999999404,0,Low,587.90000000596
171,5,0.75,E,0,High,0,Happy,0,0,Happy,450,1,High,137.600000023842
172,5,0.75,E,0,High,0,Happy,40,0,Happy,1341.39999997616,0,Low,220.199999988079
173,5,0.75,E,1,Low,1,Sad,60,1,Sad,873.200000017881,1,High,183.90000000596
174,5,0.75,E,1,Low,1,Sad,80,1,Sad,459.399999976158,1,High,151.199999988079
175,5,0.75,E,1,Low,1,Sad,60,1,Sad,411.90000000596,1,High,174.300000011921
176,5,0.75,E,0,High,0,Happy,20,0,Happy,511.5,1,High,145.40000000596
177,5,0.75,E,1,Low,1,Sad,100,1,Sad,369.40000000596,1,High,151.5
178,5,0.75,UE,1,Low,0,Happy,0,0,Happy,450,1,High,133.40000000596
179,5,0.75,E,0,High,0,Happy,20,0,Happy,1522.90000000596,1,High,172.199999988079
180,5,0.75,UE,1,Low,0,Happy,40,1,Sad,442.09999999404,1,High,332.09999999404
181,5,0.75,E,1,Low,1,Sad,60,1,Sad,1067.70000001788,1,High,612.09999999404
182,5,0.75,E,0,High,0,Happy,40,0,Happy,583.200000017881,0,Low,412.09999999404
183,5,0.75,E,1,Low,1,Sad,80,1,Sad,472,1,High,217.100000023842
184,5,0.75,E,1,Low,1,Sad,80,1,Sad,510,1,High,177.40000000596
185,5,0.75,UE,0,High,1,Sad,80,1,Sad,415.40000000596,1,High,181.399999976158
186,5,0.75,UE,0,High,1,Sad,100,1,Sad,1605,1,High,524.800000011921
187,5,0.75,E,0,High,0,Happy,0,0,Happy,441.800000011921,1,High,143.200000017881
188,5,0.75,E,1,Low,1,Sad,100,1,Sad,927.59999999404,1,High,817.90000000596
189,5,0.75,UE,1,Low,0,Happy,20,0,Happy,449.40000000596,1,High,131.300000011921
190,5,0.75,E,0,High,0,Happy,0,0,Happy,455.800000011921,1,High,156.800000011921
191,5,0.75,E,1,Low,1,Sad,100,1,Sad,421.59999999404,1,High,181.59999999404
192,5,0.75,E,0,High,0,Happy,40,0,Happy,730.700000017881,0,Low,387.200000017881
