Trial_N,Block_N,Contingency,Expectedness,Cue_idx,Cue_name,Outcome_idx,Outcome_name,Outcome_p_sad,Response_idx,Response_name,Response_RT,Confidence_idx,Confidence_name,Confidence_RT
1,1,0.75,E,1,Low,1,Sad,80,1,Sad,1335.20000000298,0,Low,1152.09999999404
2,1,0.75,E,1,Low,1,Sad,100,1,Sad,883.60000000149,1,High,2125
3,1,0.75,E,1,Low,1,Sad,80,1,Sad,733.5,1,High,667.09999999404
4,1,0.75,E,0,High,0,Happy,20,0,Happy,1296,1,High,711.89999999851
5,1,0.75,E,0,High,0,Happy,0,0,Happy,602.70000000298,1,High,545.60000000149
6,1,0.75,UE,0,High,1,Sad,100,1,Sad,1707.10000000149,1,High,577.39999999851
7,1,0.75,E,1,Low,1,Sad,60,1,Sad,715.20000000298,1,High,518.20000000298
8,1,0.75,E,0,High,0,Happy,20,0,Happy,1221.69999999553,1,High,539.89999999851
9,1,0.75,UE,1,Low,0,Happy,20,0,Happy,655,1,High,494.30000000447
10,1,0.75,E,1,Low,1,Sad,100,1,Sad,1091,1,High,706.5
11,1,0.75,E,1,Low,1,Sad,60,1,Sad,772.5,1,High,791.39999999851
12,1,0.75,E,0,High,0,Happy,40,0,Happy,709.5,1,High,608.69999999553
13,1,0.75,E,1,Low,1,Sad,60,1,Sad,833.10000000149,1,High,536.10000000149
14,1,0.75,E,1,Low,1,Sad,60,1,Sad,1133.79999999702,1,High,535.70000000298
15,1,0.75,E,1,Low,1,Sad,60,1,Sad,677.20000000298,1,High,492.20000000298
16,1,0.75,UE,0,High,1,Sad,80,1,Sad,562,1,High,477
17,1,0.75,E,0,High,0,Happy,0,0,Happy,552.79999999702,1,High,500.89999999851
18,1,0.75,E,0,High,0,Happy,20,0,Happy,453.39999999851,1,High,463
19,1,0.75,E,1,Low,1,Sad,80,1,Sad,329.60000000149,1,High,434.20000000298
20,1,0.75,E,0,High,0,Happy,0,0,Happy,515.10000000149,1,High,458.59999999404
21,1,0.75,UE,0,High,1,Sad,100,1,Sad,486.79999999702,1,High,499
22,1,0.75,E,0,High,0,Happy,20,0,Happy,551.19999999553,1,High,449
23,1,0.75,E,1,Low,1,Sad,60,1,Sad,583.80000000447,1,High,411.79999999702
24,1,0.75,E,0,High,0,Happy,40,0,Happy,495.80000000447,1,High,405.29999999702
25,1,0.75,UE,1,Low,0,Happy,0,0,Happy,517,1,High,380
26,1,0.75,E,1,Low,1,Sad,80,1,Sad,468.60000000149,1,High,417.30000000447
27,1,0.75,E,0,High,0,Happy,0,0,Happy,430.69999999553,1,High,404.19999999553
28,1,0.75,E,0,High,0,Happy,0,0,Happy,330.60000000149,1,High,397.89999999851
29,1,0.75,E,1,Low,1,Sad,60,1,Sad,449.90000000596,1,High,407.59999999404
30,1,0.75,E,1,Low,1,Sad,100,1,Sad,1310.80000000447,1,High,476.10000000149
31,1,0.75,UE,1,Low,0,Happy,40,1,Sad,490.20000000298,1,High,409.89999999851
32,1,0.75,UE,0,High,1,Sad,100,1,Sad,397.5,1,High,422.79999999702
33,1,0.75,E,0,High,0,Happy,40,0,Happy,423.70000000298,1,High,467.79999999702
34,1,0.75,E,0,High,0,Happy,40,0,Happy,415.79999999702,1,High,421.5
35,1,0.75,E,1,Low,1,Sad,80,1,Sad,400.5,1,High,412.69999999553
36,1,0.75,E,1,Low,1,Sad,60,1,Sad,1141,1,High,460.89999999851
37,1,0.75,E,0,High,0,Happy,40,0,Happy,839,1,High,413.80000000447
38,1,0.75,UE,0,High,1,Sad,80,1,Sad,522.19999999553,1,High,384.30000000447
39,1,0.75,E,1,Low,1,Sad,60,1,Sad,507.20000000298,1,High,393.29999999702
40,1,0.75,E,0,High,0,Happy,40,0,Happy,381.10000000149,1,High,393.5
41,1,0.75,UE,1,Low,0,Happy,20,0,Happy,383.40000000596,1,High,380
42,1,0.75,E,0,High,0,Happy,20,0,Happy,499.79999999702,1,High,367.89999999851
43,1,0.75,E,1,Low,1,Sad,100,1,Sad,507.39999999851,1,High,364.29999999702
44,1,0.75,UE,0,High,1,Sad,80,1,Sad,524.60000000149,1,High,379.5
45,1,0.75,E,1,Low,1,Sad,100,1,Sad,480.70000000298,1,High,388.70000000298
46,1,0.75,E,0,High,0,Happy,0,0,Happy,423.30000000447,1,High,355.60000000149
47,1,0.75,E,1,Low,1,Sad,80,1,Sad,658.5,1,High,376.5
48,1,0.75,UE,1,Low,0,Happy,20,0,Happy,486.60000000149,1,High,392.10000000149
49,1,0.75,E,0,High,0,Happy,0,0,Happy,338.5,1,High,400.20000000298
50,1,0.75,E,1,Low,1,Sad,80,1,Sad,410.39999999851,1,High,409.70000000298
51,1,0.75,E,0,High,0,Happy,20,0,Happy,281.29999999702,1,High,359.69999999553
52,1,0.75,UE,0,High,1,Sad,60,1,Sad,488.89999999851,1,High,351.69999999553
53,1,0.75,UE,1,Low,0,Happy,0,0,Happy,444,1,High,434.30000000447
54,1,0.75,E,1,Low,1,Sad,100,1,Sad,525.5,1,High,351.89999999851
55,1,0.75,E,1,Low,1,Sad,100,1,Sad,380.90000000596,1,High,378.89999999851
56,1,0.75,E,0,High,0,Happy,0,0,Happy,360.20000000298,1,High,360.10000000149
57,1,0.75,E,1,Low,1,Sad,100,1,Sad,500.10000000149,1,High,338.79999999702
58,1,0.75,UE,0,High,1,Sad,100,1,Sad,368.5,1,High,358.20000000298
59,1,0.75,E,1,Low,1,Sad,80,1,Sad,413.60000000149,1,High,324.29999999702
60,1,0.75,E,0,High,0,Happy,20,0,Happy,346.60000000149,1,High,337.29999999702
61,1,0.75,UE,1,Low,0,Happy,40,0,Happy,325.19999999553,1,High,361.5
62,1,0.75,UE,1,Low,0,Happy,20,0,Happy,261,1,High,358.59999999404
63,1,0.75,E,0,High,0,Happy,20,0,Happy,268.39999999851,1,High,340.39999999851
64,1,0.75,E,1,Low,1,Sad,60,1,Sad,1537.70000000298,1,High,805.39999999851
65,1,0.75,E,0,High,0,Happy,40,0,Happy,377.70000000298,1,High,374.60000000149
66,1,0.75,E,1,Low,1,Sad,80,1,Sad,297.69999999553,1,High,379.79999999702
67,1,0.75,UE,1,Low,0,Happy,0,0,Happy,314,1,High,371.89999999851
68,1,0.75,E,0,High,0,Happy,40,0,Happy,349.79999999702,1,High,345.39999999851
69,1,0.75,E,0,High,0,Happy,40,0,Happy,326.20000000298,1,High,369.10000000149
70,1,0.75,E,0,High,0,Happy,0,0,Happy,280.39999999851,1,High,375.19999999553
71,1,0.75,UE,1,Low,0,Happy,0,0,Happy,250,1,High,384.70000000298
72,1,0.75,E,1,Low,1,Sad,60,1,Sad,639.90000000596,1,High,344.39999999851
73,1,0.75,E,0,High,0,Happy,40,0,Happy,657,1,High,323.19999999553
74,1,0.75,E,1,Low,1,Sad,100,1,Sad,541.5,1,High,355.89999999851
75,1,0.75,E,1,Low,1,Sad,100,1,Sad,409.79999999702,1,High,354.80000000447
76,1,0.75,E,0,High,0,Happy,20,0,Happy,437.60000000149,1,High,330.10000000149
77,1,0.75,UE,0,High,1,Sad,60,1,Sad,543.19999999553,1,High,342.89999999851
78,1,0.75,E,0,High,0,Happy,0,0,Happy,341.60000000149,1,High,337.5
79,1,0.75,E,0,High,0,Happy,40,0,Happy,349.90000000596,1,High,330.70000000298
80,1,0.75,UE,0,High,1,Sad,60,1,Sad,686.90000000596,1,High,338.69999999553
81,1,0.75,E,0,High,0,Happy,40,0,Happy,1400.89999999851,1,High,306.39999999851
82,1,0.75,UE,0,High,1,Sad,80,1,Sad,656.89999999851,1,High,326.20000000298
83,1,0.75,E,0,High,0,Happy,0,0,Happy,417.19999999553,1,High,317.39999999851
84,1,0.75,E,0,High,0,Happy,20,0,Happy,472.80000000447,1,High,320.20000000298
85,1,0.75,E,1,Low,1,Sad,100,1,Sad,592.5,1,High,377.80000000447
86,1,0.75,E,1,Low,1,Sad,100,1,Sad,351.5,1,High,338.89999999851
87,1,0.75,UE,1,Low,0,Happy,40,0,Happy,2287.60000000149,0,Low,447.30000000447
88,1,0.75,E,1,Low,1,Sad,80,1,Sad,466.69999999553,1,High,791.29999999702
89,1,0.75,E,0,High,0,Happy,0,0,Happy,667.60000000149,1,High,858.09999999404
90,1,0.75,UE,0,High,1,Sad,60,1,Sad,813.60000000149,1,High,686.70000000298
91,1,0.75,E,1,Low,1,Sad,60,1,Sad,814.19999999553,1,High,429.79999999702
92,1,0.75,E,1,Low,1,Sad,80,1,Sad,376.60000000149,1,High,324.10000000149
93,1,0.75,E,0,High,0,Happy,20,0,Happy,1418.70000000298,1,High,515.90000000596
94,1,0.75,E,0,High,0,Happy,20,0,Happy,544,1,High,350.10000000149
95,1,0.75,UE,1,Low,0,Happy,40,0,Happy,853.60000000149,1,High,374.10000000149
96,1,0.75,E,1,Low,1,Sad,80,1,Sad,528.19999999553,1,High,355.89999999851
97,2,0.25,E,1,Low,0,Happy,0,0,Happy,467.40000000596,1,High,343.20000000298
98,2,0.25,UE,1,Low,1,Sad,80,1,Sad,595,1,High,364.20000000298
99,2,0.25,E,1,Low,0,Happy,40,0,Happy,1036.19999999553,0,Low,720.5
100,2,0.25,E,1,Low,0,Happy,40,0,Happy,887.70000000298,1,High,810.39999999851
101,2,0.25,E,0,High,1,Sad,60,1,Sad,989.30000000447,1,High,684.59999999404
102,2,0.25,E,1,Low,0,Happy,20,0,Happy,592.39999999851,1,High,318.89999999851
103,2,0.25,E,0,High,1,Sad,80,1,Sad,610.60000000149,1,High,393
104,2,0.25,UE,1,Low,1,Sad,100,1,Sad,426.79999999702,1,High,372.80000000447
105,2,0.25,E,1,Low,0,Happy,20,0,Happy,493.80000000447,1,High,283.39999999851
106,2,0.25,UE,1,Low,1,Sad,60,1,Sad,1051.70000000298,1,High,711.29999999702
107,2,0.25,UE,0,High,0,Happy,20,0,Happy,457.89999999851,1,High,361.10000000149
108,2,0.25,E,0,High,1,Sad,100,1,Sad,588.19999999553,1,High,332.39999999851
109,2,0.25,E,1,Low,0,Happy,40,0,Happy,439.29999999702,1,High,313.10000000149
110,2,0.25,E,0,High,1,Sad,80,1,Sad,553.10000000149,1,High,289.5
111,2,0.25,E,0,High,1,Sad,60,1,Sad,670.80000000447,1,High,339.70000000298
112,2,0.25,E,1,Low,0,Happy,0,0,Happy,537,1,High,296.30000000447
113,2,0.25,UE,0,High,0,Happy,40,1,Sad,803.60000000149,0,Low,518
114,2,0.25,E,0,High,1,Sad,80,1,Sad,391.5,1,High,430.29999999702
115,2,0.25,E,0,High,1,Sad,100,1,Sad,431,1,High,353.10000000149
116,2,0.25,E,0,High,1,Sad,60,1,Sad,396.70000000298,1,High,318.60000000149
117,2,0.25,E,1,Low,0,Happy,0,0,Happy,907.90000000596,1,High,365.19999999553
118,2,0.25,E,1,Low,0,Happy,20,0,Happy,367.80000000447,1,High,321.70000000298
119,2,0.25,UE,0,High,0,Happy,0,0,Happy,315.39999999851,1,High,309.40000000596
120,2,0.25,E,0,High,1,Sad,100,1,Sad,842.39999999851,1,High,374.09999999404
121,3,0.75,E,0,High,0,Happy,0,0,Happy,364.30000000447,1,High,571.70000000298
122,3,0.75,E,0,High,0,Happy,40,0,Happy,345.79999999702,1,High,373.19999999553
123,3,0.75,E,0,High,0,Happy,0,0,Happy,273.30000000447,1,High,333.10000000149
124,3,0.75,E,1,Low,1,Sad,80,1,Sad,995.10000000149,1,High,350.69999999553
125,3,0.75,E,1,Low,1,Sad,60,1,Sad,335,1,High,364.60000000149
126,3,0.75,UE,0,High,1,Sad,100,1,Sad,425.19999999553,1,High,312.39999999851
127,3,0.75,E,0,High,0,Happy,20,0,Happy,1343.89999999851,1,High,333.69999999553
128,3,0.75,E,0,High,0,Happy,40,0,Happy,826.69999999553,1,High,296.89999999851
129,3,0.75,UE,1,Low,0,Happy,20,0,Happy,485.59999999404,1,High,316.10000000149
130,3,0.75,E,1,Low,1,Sad,100,1,Sad,656.89999999851,1,High,332.90000000596
131,3,0.75,E,0,High,0,Happy,40,0,Happy,545.79999999702,1,High,420
132,3,0.75,UE,1,Low,0,Happy,40,0,Happy,376.59999999404,1,High,385.70000000298
133,3,0.75,UE,0,High,1,Sad,60,1,Sad,481.90000000596,1,High,382.60000000149
134,3,0.75,E,1,Low,1,Sad,80,1,Sad,530.79999999702,1,High,376.70000000298
135,3,0.75,E,1,Low,1,Sad,60,1,Sad,314.40000000596,1,High,314.29999999702
136,3,0.75,E,1,Low,1,Sad,60,1,Sad,377.70000000298,1,High,292.60000000149
137,3,0.75,E,1,Low,1,Sad,100,1,Sad,460.10000000149,1,High,328.39999999851
138,3,0.75,UE,0,High,1,Sad,80,1,Sad,540.70000000298,1,High,304.60000000149
139,3,0.75,E,0,High,0,Happy,20,0,Happy,611.20000000298,1,High,399.70000000298
140,3,0.75,E,1,Low,1,Sad,80,1,Sad,701.79999999702,1,High,319.89999999851
141,3,0.75,E,1,Low,1,Sad,100,1,Sad,344.29999999702,1,High,297.89999999851
142,3,0.75,E,0,High,0,Happy,0,0,Happy,329.19999999553,1,High,363.80000000447
143,3,0.75,UE,1,Low,0,Happy,0,0,Happy,423.60000000149,1,High,348.59999999404
144,3,0.75,E,0,High,0,Happy,20,0,Happy,398.09999999404,1,High,352.29999999702
145,4,0.25,E,1,Low,0,Happy,0,0,Happy,345.70000000298,1,High,291.80000000447
146,4,0.25,E,1,Low,0,Happy,20,0,Happy,301.30000000447,1,High,351
147,4,0.25,UE,1,Low,1,Sad,80,1,Sad,652.39999999851,1,High,305.70000000298
148,4,0.25,UE,0,High,0,Happy,40,1,Sad,523.29999999702,1,High,327.19999999553
149,4,0.25,E,0,High,1,Sad,80,1,Sad,466.60000000149,1,High,420.5
150,4,0.25,E,0,High,1,Sad,60,1,Sad,455,1,High,344.29999999702
151,4,0.25,E,1,Low,0,Happy,0,0,Happy,647.5,1,High,387.30000000447
152,4,0.25,E,0,High,1,Sad,80,1,Sad,510.29999999702,1,High,262.69999999553
153,4,0.25,E,1,Low,0,Happy,40,0,Happy,1509.30000000447,0,Low,305.79999999702
154,4,0.25,E,0,High,1,Sad,100,1,Sad,505.29999999702,1,High,362.60000000149
155,4,0.25,E,0,High,1,Sad,100,1,Sad,296,1,High,330.10000000149
156,4,0.25,E,0,High,1,Sad,80,1,Sad,341,1,High,316.20000000298
157,4,0.25,E,1,Low,0,Happy,20,0,Happy,353.5,1,High,350.5
158,4,0.25,UE,0,High,0,Happy,20,0,Happy,346.19999999553,1,High,289.60000000149
159,4,0.25,E,0,High,1,Sad,60,1,Sad,596,1,High,327.5
160,4,0.25,E,1,Low,0,Happy,40,1,Sad,530.10000000149,1,High,445.39999999851
161,4,0.25,E,1,Low,0,Happy,0,0,Happy,874.5,1,High,370.19999999553
162,4,0.25,UE,1,Low,1,Sad,60,1,Sad,522.89999999851,1,High,299.5
163,4,0.25,E,0,High,1,Sad,100,1,Sad,458.19999999553,1,High,273.60000000149
164,4,0.25,E,0,High,1,Sad,60,1,Sad,334.60000000149,1,High,312.5
165,4,0.25,UE,0,High,0,Happy,0,0,Happy,905.89999999851,1,High,316
166,4,0.25,E,1,Low,0,Happy,40,0,Happy,545,0,Low,1070.10000000149
167,4,0.25,E,1,Low,0,Happy,20,0,Happy,501.19999999553,1,High,310.89999999851
168,4,0.25,UE,1,Low,1,Sad,100,1,Sad,577.39999999851,1,High,403.19999999553
169,5,0.75,E,0,High,0,Happy,20,0,Happy,600.60000000149,1,High,357.20000000298
170,5,0.75,UE,0,High,1,Sad,60,1,Sad,705.89999999851,1,High,317.89999999851
171,5,0.75,E,0,High,0,Happy,0,0,Happy,560.20000000298,1,High,318.70000000298
172,5,0.75,E,0,High,0,Happy,40,0,Happy,470,1,High,315.90000000596
173,5,0.75,E,1,Low,1,Sad,60,1,Sad,553.19999999553,1,High,273.70000000298
174,5,0.75,E,1,Low,1,Sad,80,1,Sad,333,1,High,254.29999999702
175,5,0.75,E,1,Low,1,Sad,60,1,Sad,298,1,High,301.59999999404
176,5,0.75,E,0,High,0,Happy,20,0,Happy,358.29999999702,1,High,294.40000000596
177,5,0.75,E,1,Low,1,Sad,100,1,Sad,325.60000000149,1,High,273.90000000596
178,5,0.75,UE,1,Low,0,Happy,0,0,Happy,577.70000000298,1,High,277.89999999851
179,5,0.75,E,0,High,0,Happy,20,0,Happy,319.09999999404,1,High,287.10000000149
180,5,0.75,UE,1,Low,0,Happy,40,0,Happy,308.5,1,High,323.89999999851
181,5,0.75,E,1,Low,1,Sad,60,1,Sad,628.39999999851,1,High,260.40000000596
182,5,0.75,E,0,High,0,Happy,40,1,Sad,937.10000000149,0,Low,564.59999999404
183,5,0.75,E,1,Low,1,Sad,80,1,Sad,420.79999999702,1,High,367.39999999851
184,5,0.75,E,1,Low,1,Sad,80,1,Sad,378.5,1,High,269.89999999851
185,5,0.75,UE,0,High,1,Sad,80,1,Sad,474.10000000149,1,High,468.60000000149
186,5,0.75,UE,0,High,1,Sad,100,1,Sad,425.90000000596,1,High,277.69999999553
187,5,0.75,E,0,High,0,Happy,0,0,Happy,816.40000000596,1,High,359.10000000149
188,5,0.75,E,1,Low,1,Sad,100,1,Sad,309.20000000298,1,High,284.20000000298
189,5,0.75,UE,1,Low,0,Happy,20,0,Happy,495.39999999851,1,High,297.30000000447
190,5,0.75,E,0,High,0,Happy,0,0,Happy,369.89999999851,1,High,299.89999999851
191,5,0.75,E,1,Low,1,Sad,100,1,Sad,284.39999999851,1,High,292.29999999702
192,5,0.75,E,0,High,0,Happy,40,1,Sad,852.10000000149,0,Low,363.80000000447
