Trial_N,Block_N,Contingency,Expectedness,Cue_idx,Cue_name,Outcome_idx,Outcome_name,Outcome_p_sad,Response_idx,Response_name,Response_RT,Confidence_idx,Confidence_name,Confidence_RT
1,1,0.75,E,1,Low,1,Sad,80,1,Sad,1639.30000001192,1,High,313.5
2,1,0.75,E,1,Low,1,Sad,100,1,Sad,540.800000011921,1,High,299
3,1,0.75,E,1,Low,1,Sad,80,1,Sad,379.90000000596,1,High,242.700000017881
4,1,0.75,E,0,High,0,Happy,20,0,Happy,484.699999988079,1,High,243.100000023842
5,1,0.75,E,0,High,0,Happy,0,0,Happy,413.5,1,High,246.200000017881
6,1,0.75,UE,0,High,1,Sad,100,1,Sad,388.90000000596,1,High,206.59999999404
7,1,0.75,E,1,Low,1,Sad,60,0,Happy,1270.29999998212,0,Low,370.800000011921
8,1,0.75,E,0,High,0,Happy,20,0,Happy,399.300000011921,1,High,269.5
9,1,0.75,UE,1,Low,0,Happy,20,0,Happy,354.700000017881,1,High,223.09999999404
10,1,0.75,E,1,Low,1,Sad,100,1,Sad,430.90000000596,1,High,325.40000000596
11,1,0.75,E,1,Low,1,Sad,60,1,Sad,1214,0,Low,496.700000017881
12,1,0.75,E,0,High,0,Happy,40,0,Happy,520.40000000596,1,High,242
13,1,0.75,E,1,Low,1,Sad,60,0,Happy,577,1,High,201.300000011921
14,1,0.75,E,1,Low,1,Sad,60,0,Happy,552,1,High,197.59999999404
15,1,0.75,E,1,Low,1,Sad,60,0,Happy,612.90000000596,1,High,196
16,1,0.75,UE,0,High,1,Sad,80,1,Sad,532,1,High,536.09999999404
17,1,0.75,E,0,High,0,Happy,0,0,Happy,506.299999982119,1,High,218.699999988079
18,1,0.75,E,0,High,0,Happy,20,0,Happy,323.699999988079,1,High,216.90000000596
19,1,0.75,E,1,Low,1,Sad,80,1,Sad,456.899999976158,1,High,224.09999999404
20,1,0.75,E,0,High,0,Happy,0,0,Happy,497,1,High,254.199999988079
21,1,0.75,UE,0,High,1,Sad,100,1,Sad,467.100000023842,1,High,346.59999999404
22,1,0.75,E,0,High,0,Happy,20,0,Happy,501,1,High,283.600000023842
23,1,0.75,E,1,Low,1,Sad,60,0,Happy,1373,0,Low,354.799999982119
24,1,0.75,E,0,High,0,Happy,40,0,Happy,590.799999982119,1,High,413.199999988079
25,1,0.75,UE,1,Low,0,Happy,0,0,Happy,416.800000011921,1,High,242.199999988079
26,1,0.75,E,1,Low,1,Sad,80,1,Sad,469.09999999404,1,High,289.300000011921
27,1,0.75,E,0,High,0,Happy,0,0,Happy,364.600000023842,1,High,297.700000017881
28,1,0.75,E,0,High,0,Happy,0,0,Happy,524.200000017881,1,High,271.09999999404
29,1,0.75,E,1,Low,1,Sad,60,1,Sad,1551.80000001192,0,Low,463.199999988079
30,1,0.75,E,1,Low,1,Sad,100,1,Sad,435.59999999404,1,High,490.100000023842
31,1,0.75,UE,1,Low,0,Happy,40,0,Happy,537.699999988079,1,High,250.59999999404
32,1,0.75,UE,0,High,1,Sad,100,1,Sad,480.800000011921,1,High,277.59999999404
33,1,0.75,E,0,High,0,Happy,40,0,Happy,483.09999999404,1,High,209.90000000596
34,1,0.75,E,0,High,0,Happy,40,0,Happy,355.699999988079,1,High,277.799999982119
35,1,0.75,E,1,Low,1,Sad,80,1,Sad,545.800000011921,1,High,382.800000011921
36,1,0.75,E,1,Low,1,Sad,60,1,Sad,873.300000011921,1,High,392.800000011921
37,1,0.75,E,0,High,0,Happy,40,0,Happy,403.399999976158,1,High,254.40000000596
38,1,0.75,UE,0,High,1,Sad,80,1,Sad,617.199999988079,1,High,273.699999988079
39,1,0.75,E,1,Low,1,Sad,60,0,Happy,609.899999976158,1,High,249.799999982119
40,1,0.75,E,0,High,0,Happy,40,0,Happy,334.09999999404,1,High,215.90000000596
41,1,0.75,UE,1,Low,0,Happy,20,0,Happy,476,1,High,173.40000000596
42,1,0.75,E,0,High,0,Happy,20,0,Happy,296.5,1,High,178.90000000596
43,1,0.75,E,1,Low,1,Sad,100,1,Sad,326,1,High,340
44,1,0.75,UE,0,High,1,Sad,80,1,Sad,856,1,High,194.800000011921
45,1,0.75,E,1,Low,1,Sad,100,1,Sad,609.09999999404,1,High,229.40000000596
46,1,0.75,E,0,High,0,Happy,0,0,Happy,870,1,High,232.799999982119
47,1,0.75,E,1,Low,1,Sad,80,1,Sad,511,1,High,265.09999999404
48,1,0.75,UE,1,Low,0,Happy,20,0,Happy,434,1,High,213.399999976158
49,1,0.75,E,0,High,0,Happy,0,0,Happy,419,1,High,203.5
50,1,0.75,E,1,Low,1,Sad,80,1,Sad,484.09999999404,1,High,303.59999999404
51,1,0.75,E,0,High,0,Happy,20,0,Happy,469.5,1,High,138.299999982119
52,1,0.75,UE,0,High,1,Sad,60,0,Happy,1261.40000000596,0,Low,373.09999999404
53,1,0.75,UE,1,Low,0,Happy,0,0,Happy,507,1,High,352.399999976158
54,1,0.75,E,1,Low,1,Sad,100,1,Sad,565.300000011921,1,High,236.90000000596
55,1,0.75,E,1,Low,1,Sad,100,1,Sad,584.40000000596,1,High,231.300000011921
56,1,0.75,E,0,High,0,Happy,0,0,Happy,443.90000000596,1,High,190.799999982119
57,1,0.75,E,1,Low,1,Sad,100,1,Sad,448.100000023842,1,High,193.90000000596
58,1,0.75,UE,0,High,1,Sad,100,1,Sad,419.299999982119,1,High,186.40000000596
59,1,0.75,E,1,Low,1,Sad,80,1,Sad,477,1,High,216.5
60,1,0.75,E,0,High,0,Happy,20,0,Happy,414.299999982119,1,High,190.899999976158
61,1,0.75,UE,1,Low,0,Happy,40,0,Happy,323.299999982119,1,High,202
62,1,0.75,UE,1,Low,0,Happy,20,0,Happy,679.299999982119,1,High,215.5
63,1,0.75,E,0,High,0,Happy,20,0,Happy,399.799999982119,1,High,232
64,1,0.75,E,1,Low,1,Sad,60,0,Happy,361.100000023842,1,High,206.90000000596
65,1,0.75,E,0,High,0,Happy,40,0,Happy,436.200000017881,1,High,211.09999999404
66,1,0.75,E,1,Low,1,Sad,80,1,Sad,653.299999982119,1,High,219.90000000596
67,1,0.75,UE,1,Low,0,Happy,0,0,Happy,421.59999999404,1,High,182.5
68,1,0.75,E,0,High,0,Happy,40,0,Happy,591.09999999404,1,High,152.59999999404
69,1,0.75,E,0,High,0,Happy,40,0,Happy,335.399999976158,1,High,203.40000000596
70,1,0.75,E,0,High,0,Happy,0,0,Happy,338.700000017881,1,High,183.199999988079
71,1,0.75,UE,1,Low,0,Happy,0,0,Happy,348.40000000596,1,High,178.09999999404
72,1,0.75,E,1,Low,1,Sad,60,1,Sad,1329.40000000596,0,Low,476.299999982119
73,1,0.75,E,0,High,0,Happy,40,0,Happy,324.699999988079,1,High,220
74,1,0.75,E,1,Low,1,Sad,100,1,Sad,426.90000000596,1,High,302.699999988079
75,1,0.75,E,1,Low,1,Sad,100,1,Sad,686.09999999404,1,High,250.200000017881
76,1,0.75,E,0,High,0,Happy,20,0,Happy,427.300000011921,1,High,213.699999988079
77,1,0.75,UE,0,High,1,Sad,60,1,Sad,1216.19999998808,0,Low,380.59999999404
78,1,0.75,E,0,High,0,Happy,0,0,Happy,365.90000000596,1,High,221.09999999404
79,1,0.75,E,0,High,0,Happy,40,0,Happy,386.600000023842,1,High,207.199999988079
80,1,0.75,UE,0,High,1,Sad,60,0,Happy,2163.5,0,Low,898.399999976158
81,1,0.75,E,0,High,0,Happy,40,0,Happy,416,1,High,252.09999999404
82,1,0.75,UE,0,High,1,Sad,80,1,Sad,520,1,High,258.40000000596
83,1,0.75,E,0,High,0,Happy,0,0,Happy,459.40000000596,1,High,237.09999999404
84,1,0.75,E,0,High,0,Happy,20,0,Happy,363.799999982119,1,High,207.199999988079
85,1,0.75,E,1,Low,1,Sad,100,1,Sad,436.299999982119,1,High,198.700000017881
86,1,0.75,E,1,Low,1,Sad,100,1,Sad,419,1,High,219.199999988079
87,1,0.75,UE,1,Low,0,Happy,40,0,Happy,900.90000000596,1,High,219.800000011921
88,1,0.75,E,1,Low,1,Sad,80,1,Sad,468.200000017881,1,High,306.40000000596
89,1,0.75,E,0,High,0,Happy,0,0,Happy,423.40000000596,1,High,290.40000000596
90,1,0.75,UE,0,High,1,Sad,60,0,Happy,989.699999988079,0,Low,595.5
91,1,0.75,E,1,Low,1,Sad,60,0,Happy,1285.40000000596,1,High,400.40000000596
92,1,0.75,E,1,Low,1,Sad,80,1,Sad,440.799999982119,1,High,252.90000000596
93,1,0.75,E,0,High,0,Happy,20,0,Happy,371.799999982119,1,High,157.90000000596
94,1,0.75,E,0,High,0,Happy,20,0,Happy,332.699999988079,1,High,184.90000000596
95,1,0.75,UE,1,Low,0,Happy,40,0,Happy,372.40000000596,1,High,307.90000000596
96,1,0.75,E,1,Low,1,Sad,80,1,Sad,412.59999999404,1,High,192.40000000596
97,2,0.25,E,1,Low,0,Happy,0,0,Happy,602.799999982119,1,High,246.5
98,2,0.25,UE,1,Low,1,Sad,80,1,Sad,332.799999982119,1,High,253.700000017881
99,2,0.25,E,1,Low,0,Happy,40,0,Happy,543.899999976158,1,High,235.40000000596
100,2,0.25,E,1,Low,0,Happy,40,0,Happy,334.5,1,High,193
101,2,0.25,E,0,High,1,Sad,60,0,Happy,1147.30000001192,1,High,980.299999982119
102,2,0.25,E,1,Low,0,Happy,20,0,Happy,360.199999988079,1,High,230.399999976158
103,2,0.25,E,0,High,1,Sad,80,1,Sad,516.09999999404,1,High,250.5
104,2,0.25,UE,1,Low,1,Sad,100,1,Sad,579.90000000596,1,High,164.699999988079
105,2,0.25,E,1,Low,0,Happy,20,0,Happy,550.799999982119,1,High,207.90000000596
106,2,0.25,UE,1,Low,1,Sad,60,0,Happy,564.40000000596,1,High,201.90000000596
107,2,0.25,UE,0,High,0,Happy,20,0,Happy,533.40000000596,1,High,189.40000000596
108,2,0.25,E,0,High,1,Sad,100,1,Sad,303,1,High,233.700000017881
109,2,0.25,E,1,Low,0,Happy,40,0,Happy,565.700000017881,1,High,195.200000017881
110,2,0.25,E,0,High,1,Sad,80,1,Sad,454.5,1,High,210.40000000596
111,2,0.25,E,0,High,1,Sad,60,0,Happy,1220,0,Low,340.40000000596
112,2,0.25,E,1,Low,0,Happy,0,0,Happy,343.5,1,High,214.700000017881
113,2,0.25,UE,0,High,0,Happy,40,0,Happy,443.299999982119,1,High,282.799999982119
114,2,0.25,E,0,High,1,Sad,80,1,Sad,640.59999999404,1,High,573.5
115,2,0.25,E,0,High,1,Sad,100,1,Sad,539.699999988079,1,High,222.700000017881
116,2,0.25,E,0,High,1,Sad,60,0,Happy,1465.59999999404,0,Low,342.40000000596
117,2,0.25,E,1,Low,0,Happy,0,0,Happy,389.40000000596,1,High,357.799999982119
118,2,0.25,E,1,Low,0,Happy,20,0,Happy,315.700000017881,1,High,307.299999982119
119,2,0.25,UE,0,High,0,Happy,0,0,Happy,313.700000017881,1,High,233.600000023842
120,2,0.25,E,0,High,1,Sad,100,1,Sad,576.199999988079,1,High,212.699999988079
121,3,0.75,E,0,High,0,Happy,0,0,Happy,488.09999999404,1,High,214
122,3,0.75,E,0,High,0,Happy,40,0,Happy,426.09999999404,1,High,401
123,3,0.75,E,0,High,0,Happy,0,0,Happy,281,1,High,190.399999976158
124,3,0.75,E,1,Low,1,Sad,80,1,Sad,537,1,High,246.40000000596
125,3,0.75,E,1,Low,1,Sad,60,1,Sad,949.59999999404,1,High,241.800000011921
126,3,0.75,UE,0,High,1,Sad,100,1,Sad,531.700000017881,1,High,243.699999988079
127,3,0.75,E,0,High,0,Happy,20,0,Happy,356.90000000596,1,High,234.100000023842
128,3,0.75,E,0,High,0,Happy,40,0,Happy,485.90000000596,1,High,164.5
129,3,0.75,UE,1,Low,0,Happy,20,0,Happy,450.300000011921,1,High,228.5
130,3,0.75,E,1,Low,1,Sad,100,1,Sad,409.899999976158,1,High,220.699999988079
131,3,0.75,E,0,High,0,Happy,40,0,Happy,463,1,High,332
132,3,0.75,UE,1,Low,0,Happy,40,0,Happy,460.699999988079,1,High,248.59999999404
133,3,0.75,UE,0,High,1,Sad,60,0,Happy,1152.70000001788,0,Low,647
134,3,0.75,E,1,Low,1,Sad,80,1,Sad,503.300000011921,1,High,262.5
135,3,0.75,E,1,Low,1,Sad,60,0,Happy,1148,0,Low,484.699999988079
136,3,0.75,E,1,Low,1,Sad,60,0,Happy,1794.5,1,High,231.5
137,3,0.75,E,1,Low,1,Sad,100,1,Sad,565.300000011921,1,High,215.299999982119
138,3,0.75,UE,0,High,1,Sad,80,1,Sad,611.40000000596,1,High,260.399999976158
139,3,0.75,E,0,High,0,Happy,20,0,Happy,548.40000000596,1,High,218.09999999404
140,3,0.75,E,1,Low,1,Sad,80,1,Sad,490.100000023842,1,High,216.800000011921
141,3,0.75,E,1,Low,1,Sad,100,1,Sad,598.09999999404,1,High,272.199999988079
142,3,0.75,E,0,High,0,Happy,0,0,Happy,418.40000000596,1,High,239.300000011921
143,3,0.75,UE,1,Low,0,Happy,0,0,Happy,427.09999999404,1,High,181.299999982119
144,3,0.75,E,0,High,0,Happy,20,0,Happy,335.100000023842,1,High,246.40000000596
145,4,0.25,E,1,Low,0,Happy,0,0,Happy,278.299999982119,1,High,204.09999999404
146,4,0.25,E,1,Low,0,Happy,20,0,Happy,258.59999999404,1,High,192.90000000596
147,4,0.25,UE,1,Low,1,Sad,80,1,Sad,327.90000000596,1,High,211
148,4,0.25,UE,0,High,0,Happy,40,0,Happy,417.699999988079,1,High,193.299999982119
149,4,0.25,E,0,High,1,Sad,80,1,Sad,432.200000017881,1,High,203.700000017881
150,4,0.25,E,0,High,1,Sad,60,0,Happy,1534.09999999404,0,Low,371.899999976158
151,4,0.25,E,1,Low,0,Happy,0,0,Happy,396.200000017881,1,High,259.40000000596
152,4,0.25,E,0,High,1,Sad,80,1,Sad,503.200000017881,1,High,355.699999988079
153,4,0.25,E,1,Low,0,Happy,40,0,Happy,609.799999982119,1,High,258.5
154,4,0.25,E,0,High,1,Sad,100,1,Sad,396.299999982119,1,High,272.90000000596
155,4,0.25,E,0,High,1,Sad,100,1,Sad,469.09999999404,1,High,270
156,4,0.25,E,0,High,1,Sad,80,1,Sad,415.299999982119,1,High,332.699999988079
157,4,0.25,E,1,Low,0,Happy,20,0,Happy,478.5,1,High,286.09999999404
158,4,0.25,UE,0,High,0,Happy,20,0,Happy,313.800000011921,1,High,222.40000000596
159,4,0.25,E,0,High,1,Sad,60,1,Sad,1184.40000000596,0,Low,444.90000000596
160,4,0.25,E,1,Low,0,Happy,40,0,Happy,419.40000000596,1,High,326
161,4,0.25,E,1,Low,0,Happy,0,0,Happy,310.899999976158,1,High,183.299999982119
162,4,0.25,UE,1,Low,1,Sad,60,1,Sad,1202.20000001788,0,Low,379.800000011921
163,4,0.25,E,0,High,1,Sad,100,1,Sad,507.199999988079,1,High,282.200000017881
164,4,0.25,E,0,High,1,Sad,60,0,Happy,1150,0,Low,549.299999982119
165,4,0.25,UE,0,High,0,Happy,0,0,Happy,544,1,High,262.09999999404
166,4,0.25,E,1,Low,0,Happy,40,0,Happy,650.699999988079,1,High,268.59999999404
167,4,0.25,E,1,Low,0,Happy,20,0,Happy,338.09999999404,1,High,209.90000000596
168,4,0.25,UE,1,Low,1,Sad,100,1,Sad,432.899999976158,1,High,167
169,5,0.75,E,0,High,0,Happy,20,0,Happy,279,1,High,149.199999988079
170,5,0.75,UE,0,High,1,Sad,60,0,Happy,1046.59999999404,0,Low,380.5
171,5,0.75,E,0,High,0,Happy,0,0,Happy,349.200000017881,1,High,236
172,5,0.75,E,0,High,0,Happy,40,0,Happy,288.90000000596,1,High,258.300000011921
173,5,0.75,E,1,Low,1,Sad,60,0,Happy,1534.40000000596,0,Low,343.600000023842
174,5,0.75,E,1,Low,1,Sad,80,1,Sad,645.09999999404,1,High,278.40000000596
175,5,0.75,E,1,Low,1,Sad,60,0,Happy,1242.90000000596,0,Low,253.40000000596
176,5,0.75,E,0,High,0,Happy,20,0,Happy,447.90000000596,1,High,233
177,5,0.75,E,1,Low,1,Sad,100,1,Sad,467.5,1,High,208.5
178,5,0.75,UE,1,Low,0,Happy,0,0,Happy,465.700000017881,1,High,167.09999999404
179,5,0.75,E,0,High,0,Happy,20,0,Happy,309.59999999404,1,High,178.40000000596
180,5,0.75,UE,1,Low,0,Happy,40,0,Happy,361.09999999404,1,High,173.40000000596
181,5,0.75,E,1,Low,1,Sad,60,0,Happy,2069.80000001192,0,Low,449.199999988079
182,5,0.75,E,0,High,0,Happy,40,0,Happy,870.40000000596,1,High,204.59999999404
183,5,0.75,E,1,Low,1,Sad,80,1,Sad,498.800000011921,1,High,228.59999999404
184,5,0.75,E,1,Low,1,Sad,80,1,Sad,410.5,1,High,200.09999999404
185,5,0.75,UE,0,High,1,Sad,80,1,Sad,500.90000000596,1,High,192.300000011921
186,5,0.75,UE,0,High,1,Sad,100,1,Sad,416.59999999404,1,High,220.100000023842
187,5,0.75,E,0,High,0,Happy,0,0,Happy,435.09999999404,1,High,189.5
188,5,0.75,E,1,Low,1,Sad,100,1,Sad,744.800000011921,1,High,296.09999999404
189,5,0.75,UE,1,Low,0,Happy,20,0,Happy,327.699999988079,1,High,215.200000017881
190,5,0.75,E,0,High,0,Happy,0,0,Happy,323.199999988079,1,High,269.300000011921
191,5,0.75,E,1,Low,1,Sad,100,1,Sad,443.699999988079,1,High,417.699999988079
192,5,0.75,E,0,High,0,Happy,40,0,Happy,310.5,1,High,274.299999982119
