Trial_N,Block_N,Contingency,Expectedness,Cue_idx,Cue_name,Outcome_idx,Outcome_name,Outcome_p_sad,Response_idx,Response_name,Response_RT,Confidence_idx,Confidence_name,Confidence_RT
1,1,0.75,E,1,Low,1,Sad,80,1,Sad,2924.39999999944,1,High,403.700000000186
2,1,0.75,E,1,Low,1,Sad,100,1,Sad,678.899999999441,1,High,337
3,1,0.75,E,1,Low,1,Sad,80,1,Sad,556.5,1,High,350.100000000559
4,1,0.75,E,0,High,0,Happy,20,0,Happy,853.200000000186,1,High,501
5,1,0.75,E,0,High,0,Happy,0,0,Happy,706.399999999441,1,High,384.099999999627
6,1,0.75,UE,0,High,1,Sad,100,1,Sad,936.099999999627,1,High,372.699999999255
7,1,0.75,E,1,Low,1,Sad,60,0,Happy,1346.40000000037,0,Low,287.300000000745
8,1,0.75,E,0,High,0,Happy,20,0,Happy,1053,1,High,441.600000000559
9,1,0.75,UE,1,Low,0,Happy,20,0,Happy,719.199999999255,1,High,420.100000000559
10,1,0.75,E,1,Low,1,Sad,100,1,Sad,783.799999999814,1,High,336.299999999814
11,1,0.75,E,1,Low,1,Sad,60,0,Happy,1337,0,Low,284.400000000373
12,1,0.75,E,0,High,0,Happy,40,0,Happy,599.800000000745,1,High,447.200000000186
13,1,0.75,E,1,Low,1,Sad,60,0,Happy,1474.29999999981,0,Low,291.799999999814
14,1,0.75,E,1,Low,1,Sad,60,1,Sad,1706.79999999981,1,High,421.700000000186
15,1,0.75,E,1,Low,1,Sad,60,0,Happy,1048.70000000019,0,Low,445
16,1,0.75,UE,0,High,1,Sad,80,1,Sad,1303,0,Low,315.299999999814
17,1,0.75,E,0,High,0,Happy,0,0,Happy,1118.29999999981,1,High,424.700000000186
18,1,0.75,E,0,High,0,Happy,20,0,Happy,1008.20000000019,1,High,521.100000000559
19,1,0.75,E,1,Low,1,Sad,80,1,Sad,726.200000000186,1,High,347
20,1,0.75,E,0,High,0,Happy,0,0,Happy,1044.90000000037,1,High,413.400000000373
21,1,0.75,UE,0,High,1,Sad,100,1,Sad,1097.80000000075,1,High,410
22,1,0.75,E,0,High,0,Happy,20,0,Happy,748.099999999627,1,High,421.200000000186
23,1,0.75,E,1,Low,1,Sad,60,1,Sad,806.899999999441,1,High,688.200000000186
24,1,0.75,E,0,High,0,Happy,40,0,Happy,864,1,High,447.399999999441
25,1,0.75,UE,1,Low,0,Happy,0,0,Happy,587.700000000186,1,High,399.5
26,1,0.75,E,1,Low,1,Sad,80,1,Sad,668.5,1,High,451.299999999814
27,1,0.75,E,0,High,0,Happy,0,0,Happy,673.799999999814,1,High,406.900000000373
28,1,0.75,E,0,High,0,Happy,0,0,Happy,557,1,High,608.899999999441
29,1,0.75,E,1,Low,1,Sad,60,1,Sad,901.400000000373,0,Low,1337.69999999925
30,1,0.75,E,1,Low,1,Sad,100,1,Sad,1187.5,1,High,412.700000000186
31,1,0.75,UE,1,Low,0,Happy,40,0,Happy,1036.30000000075,1,High,474.5
32,1,0.75,UE,0,High,1,Sad,100,1,Sad,847.700000000186,1,High,424.299999999814
33,1,0.75,E,0,High,0,Happy,40,0,Happy,682.199999999255,1,High,492.5
34,1,0.75,E,0,High,0,Happy,40,0,Happy,1060.90000000037,1,High,434.100000000559
35,1,0.75,E,1,Low,1,Sad,80,1,Sad,946.099999999627,1,High,392
36,1,0.75,E,1,Low,1,Sad,60,0,Happy,1638,0,Low,402.799999999814
37,1,0.75,E,0,High,0,Happy,40,0,Happy,824.5,0,Low,407.299999999814
38,1,0.75,UE,0,High,1,Sad,80,0,Happy,524.100000000559,0,Low,1417.10000000056
39,1,0.75,E,1,Low,1,Sad,60,1,Sad,1019.29999999981,0,Low,351.5
40,1,0.75,E,0,High,0,Happy,40,0,Happy,999.800000000745,0,Low,277.5
41,1,0.75,UE,1,Low,0,Happy,20,0,Happy,832.199999999255,1,High,424.299999999814
42,1,0.75,E,0,High,0,Happy,20,0,Happy,559.299999999814,1,High,432.5
43,1,0.75,E,1,Low,1,Sad,100,1,Sad,935.200000000186,1,High,350.5
44,1,0.75,UE,0,High,1,Sad,80,1,Sad,1113.29999999981,1,High,359.799999999814
45,1,0.75,E,1,Low,1,Sad,100,1,Sad,794.899999999441,1,High,358
46,1,0.75,E,0,High,0,Happy,0,0,Happy,600,1,High,391.700000000186
47,1,0.75,E,1,Low,1,Sad,80,1,Sad,941.299999999814,1,High,326.799999999814
48,1,0.75,UE,1,Low,0,Happy,20,0,Happy,608.700000000186,1,High,350.400000000373
49,1,0.75,E,0,High,0,Happy,0,0,Happy,1037.40000000037,1,High,517.299999999814
50,1,0.75,E,1,Low,1,Sad,80,1,Sad,651.900000000373,1,High,345.599999999627
51,1,0.75,E,0,High,0,Happy,20,0,Happy,280.599999999627,1,High,439.299999999814
52,1,0.75,UE,0,High,1,Sad,60,1,Sad,1690.09999999963,1,High,408.400000000373
53,1,0.75,UE,1,Low,0,Happy,0,0,Happy,612.899999999441,1,High,402.5
54,1,0.75,E,1,Low,1,Sad,100,1,Sad,880.100000000559,1,High,352.200000000186
55,1,0.75,E,1,Low,1,Sad,100,1,Sad,750,1,High,419.099999999627
56,1,0.75,E,0,High,0,Happy,0,0,Happy,658,1,High,372.799999999814
57,1,0.75,E,1,Low,1,Sad,100,1,Sad,854.600000000559,1,High,372.799999999814
58,1,0.75,UE,0,High,1,Sad,100,1,Sad,1211.59999999963,1,High,489.600000000559
59,1,0.75,E,1,Low,1,Sad,80,1,Sad,821.199999999255,1,High,377.799999999814
60,1,0.75,E,0,High,0,Happy,20,0,Happy,611.899999999441,1,High,505.5
61,1,0.75,UE,1,Low,0,Happy,40,0,Happy,736.399999999441,1,High,407.5
62,1,0.75,UE,1,Low,0,Happy,20,0,Happy,655.899999999441,1,High,353.799999999814
63,1,0.75,E,0,High,0,Happy,20,0,Happy,830.5,1,High,396.5
64,1,0.75,E,1,Low,1,Sad,60,1,Sad,1946.59999999963,1,High,469
65,1,0.75,E,0,High,0,Happy,40,0,Happy,2010.40000000037,1,High,368
66,1,0.75,E,1,Low,1,Sad,80,1,Sad,863,1,High,375
67,1,0.75,UE,1,Low,0,Happy,0,0,Happy,620.699999999255,1,High,373
68,1,0.75,E,0,High,0,Happy,40,0,Happy,1042.29999999981,0,Low,421.5
69,1,0.75,E,0,High,0,Happy,40,0,Happy,571.299999999814,0,Low,341
70,1,0.75,E,0,High,0,Happy,0,0,Happy,897.200000000186,1,High,366.900000000373
71,1,0.75,UE,1,Low,0,Happy,0,0,Happy,813.199999999255,1,High,401.5
72,1,0.75,E,1,Low,1,Sad,60,1,Sad,1168.29999999981,1,High,379.600000000559
73,1,0.75,E,0,High,0,Happy,40,0,Happy,814.099999999627,0,Low,283.299999999814
74,1,0.75,E,1,Low,1,Sad,100,1,Sad,937.700000000186,1,High,325.900000000373
75,1,0.75,E,1,Low,1,Sad,100,1,Sad,792.299999999814,1,High,296.800000000745
76,1,0.75,E,0,High,0,Happy,20,0,Happy,1255.59999999963,1,High,426.599999999627
77,1,0.75,UE,0,High,1,Sad,60,1,Sad,1021,1,High,357
78,1,0.75,E,0,High,0,Happy,0,0,Happy,538.700000000186,1,High,476.799999999814
79,1,0.75,E,0,High,0,Happy,40,0,Happy,1164.20000000019,0,Low,397.900000000373
80,1,0.75,UE,0,High,1,Sad,60,0,Happy,434,0,Low,330.799999999814
81,1,0.75,E,0,High,0,Happy,40,0,Happy,896.299999999814,0,Low,375.900000000373
82,1,0.75,UE,0,High,1,Sad,80,1,Sad,913.200000000186,1,High,310.799999999814
83,1,0.75,E,0,High,0,Happy,0,0,Happy,801.099999999627,1,High,460.299999999814
84,1,0.75,E,0,High,0,Happy,20,0,Happy,592.5,1,High,398.899999999441
85,1,0.75,E,1,Low,1,Sad,100,1,Sad,893.200000000186,1,High,507.600000000559
86,1,0.75,E,1,Low,1,Sad,100,1,Sad,822.400000000373,1,High,411.400000000373
87,1,0.75,UE,1,Low,0,Happy,40,0,Happy,997.799999999814,0,Low,349.399999999441
88,1,0.75,E,1,Low,1,Sad,80,1,Sad,940.799999999814,1,High,350.599999999627
89,1,0.75,E,0,High,0,Happy,0,0,Happy,670.700000000186,1,High,809.700000000186
90,1,0.75,UE,0,High,1,Sad,60,1,Sad,1544.69999999925,1,High,351.799999999814
91,1,0.75,E,1,Low,1,Sad,60,1,Sad,1482.70000000019,0,Low,289.399999999441
92,1,0.75,E,1,Low,1,Sad,80,1,Sad,767.200000000186,1,High,454.700000000186
93,1,0.75,E,0,High,0,Happy,20,0,Happy,633.400000000373,1,High,395.799999999814
94,1,0.75,E,0,High,0,Happy,20,0,Happy,684.700000000186,1,High,649.800000000745
95,1,0.75,UE,1,Low,0,Happy,40,0,Happy,920.299999999814,0,Low,434.700000000186
96,1,0.75,E,1,Low,1,Sad,80,1,Sad,881.100000000559,1,High,424.899999999441
97,2,0.25,E,1,Low,0,Happy,0,0,Happy,585.5,1,High,339.400000000373
98,2,0.25,UE,1,Low,1,Sad,80,1,Sad,916.299999999814,1,High,356.799999999814
99,2,0.25,E,1,Low,0,Happy,40,0,Happy,793.600000000559,1,High,316.199999999255
100,2,0.25,E,1,Low,0,Happy,40,0,Happy,718.699999999255,0,Low,275.299999999814
101,2,0.25,E,0,High,1,Sad,60,1,Sad,1542.09999999963,1,High,353.700000000186
102,2,0.25,E,1,Low,0,Happy,20,0,Happy,802.100000000559,1,High,357.5
103,2,0.25,E,0,High,1,Sad,80,1,Sad,1234.59999999963,1,High,332.299999999814
104,2,0.25,UE,1,Low,1,Sad,100,1,Sad,916.299999999814,1,High,345.200000000186
105,2,0.25,E,1,Low,0,Happy,20,0,Happy,1131.10000000056,1,High,318.100000000559
106,2,0.25,UE,1,Low,1,Sad,60,1,Sad,860,1,High,274.900000000373
107,2,0.25,UE,0,High,0,Happy,20,0,Happy,838.5,1,High,320.099999999627
108,2,0.25,E,0,High,1,Sad,100,1,Sad,1040.09999999963,1,High,370.5
109,2,0.25,E,1,Low,0,Happy,40,0,Happy,887.800000000745,0,Low,265.700000000186
110,2,0.25,E,0,High,1,Sad,80,1,Sad,853.299999999814,1,High,422.200000000186
111,2,0.25,E,0,High,1,Sad,60,1,Sad,912,1,High,363.5
112,2,0.25,E,1,Low,0,Happy,0,0,Happy,645.199999999255,1,High,378.199999999255
113,2,0.25,UE,0,High,0,Happy,40,0,Happy,1081.10000000056,0,Low,281.899999999441
114,2,0.25,E,0,High,1,Sad,80,1,Sad,1234.20000000019,1,High,307
115,2,0.25,E,0,High,1,Sad,100,1,Sad,1542.5,1,High,404.5
116,2,0.25,E,0,High,1,Sad,60,1,Sad,1139.69999999925,0,Low,209.099999999627
117,2,0.25,E,1,Low,0,Happy,0,0,Happy,838,1,High,379.100000000559
118,2,0.25,E,1,Low,0,Happy,20,0,Happy,922.299999999814,1,High,409.299999999814
119,2,0.25,UE,0,High,0,Happy,0,0,Happy,784.299999999814,1,High,443.199999999255
120,2,0.25,E,0,High,1,Sad,100,1,Sad,759.799999999814,1,High,312.599999999627
121,3,0.75,E,0,High,0,Happy,0,0,Happy,1198.20000000019,1,High,690.200000000186
122,3,0.75,E,0,High,0,Happy,40,0,Happy,853.5,0,Low,286.700000000186
123,3,0.75,E,0,High,0,Happy,0,0,Happy,736.399999999441,1,High,336.599999999627
124,3,0.75,E,1,Low,1,Sad,80,1,Sad,677.099999999627,1,High,368.400000000373
125,3,0.75,E,1,Low,1,Sad,60,1,Sad,1637.89999999944,0,Low,344.200000000186
126,3,0.75,UE,0,High,1,Sad,100,1,Sad,655.5,1,High,340
127,3,0.75,E,0,High,0,Happy,20,0,Happy,903.700000000186,1,High,295.799999999814
128,3,0.75,E,0,High,0,Happy,40,0,Happy,882.799999999814,1,High,532.400000000373
129,3,0.75,UE,1,Low,0,Happy,20,0,Happy,971.099999999627,1,High,338.700000000186
130,3,0.75,E,1,Low,1,Sad,100,1,Sad,808.099999999627,1,High,294.200000000186
131,3,0.75,E,0,High,0,Happy,40,0,Happy,939.600000000559,0,Low,269.600000000559
132,3,0.75,UE,1,Low,0,Happy,40,0,Happy,641.199999999255,1,High,329.799999999814
133,3,0.75,UE,0,High,1,Sad,60,1,Sad,1122.29999999981,0,Low,251.5
134,3,0.75,E,1,Low,1,Sad,80,1,Sad,751.599999999627,1,High,333.700000000186
135,3,0.75,E,1,Low,1,Sad,60,1,Sad,901.300000000745,0,Low,257
136,3,0.75,E,1,Low,1,Sad,60,1,Sad,1406.29999999981,0,Low,340.799999999814
137,3,0.75,E,1,Low,1,Sad,100,1,Sad,1029.79999999981,1,High,332.400000000373
138,3,0.75,UE,0,High,1,Sad,80,1,Sad,1416.29999999981,1,High,352.400000000373
139,3,0.75,E,0,High,0,Happy,20,0,Happy,725.100000000559,1,High,305.400000000373
140,3,0.75,E,1,Low,1,Sad,80,1,Sad,1230.89999999944,0,Low,239.400000000373
141,3,0.75,E,1,Low,1,Sad,100,1,Sad,959.400000000373,0,Low,783.100000000559
142,3,0.75,E,0,High,0,Happy,0,0,Happy,650.400000000373,1,High,570.700000000186
143,3,0.75,UE,1,Low,0,Happy,0,0,Happy,644.299999999814,1,High,318
144,3,0.75,E,0,High,0,Happy,20,0,Happy,532.200000000186,1,High,363.5
145,4,0.25,E,1,Low,0,Happy,0,0,Happy,781.5,1,High,357
146,4,0.25,E,1,Low,0,Happy,20,0,Happy,594.5,1,High,334.5
147,4,0.25,UE,1,Low,1,Sad,80,1,Sad,983.299999999814,1,High,335.400000000373
148,4,0.25,UE,0,High,0,Happy,40,0,Happy,686.399999999441,0,Low,279.200000000186
149,4,0.25,E,0,High,1,Sad,80,1,Sad,855.799999999814,1,High,377
150,4,0.25,E,0,High,1,Sad,60,1,Sad,1105.70000000019,0,Low,266.599999999627
151,4,0.25,E,1,Low,0,Happy,0,0,Happy,433.299999999814,1,High,394.799999999814
152,4,0.25,E,0,High,1,Sad,80,1,Sad,755.799999999814,1,High,299.799999999814
153,4,0.25,E,1,Low,0,Happy,40,0,Happy,1773.80000000075,0,Low,253.700000000186
154,4,0.25,E,0,High,1,Sad,100,1,Sad,1550.79999999981,1,High,345.599999999627
155,4,0.25,E,0,High,1,Sad,100,1,Sad,767.099999999627,1,High,295.100000000559
156,4,0.25,E,0,High,1,Sad,80,1,Sad,1069.29999999981,1,High,347.800000000745
157,4,0.25,E,1,Low,0,Happy,20,0,Happy,791.900000000373,1,High,343.299999999814
158,4,0.25,UE,0,High,0,Happy,20,0,Happy,702.200000000186,1,High,288.799999999814
159,4,0.25,E,0,High,1,Sad,60,1,Sad,867,0,Low,590.899999999441
160,4,0.25,E,1,Low,0,Happy,40,0,Happy,904.599999999627,0,Low,711
161,4,0.25,E,1,Low,0,Happy,0,0,Happy,533.5,1,High,336
162,4,0.25,UE,1,Low,1,Sad,60,1,Sad,1320.5,1,High,417.299999999814
163,4,0.25,E,0,High,1,Sad,100,1,Sad,748.199999999255,1,High,319.599999999627
164,4,0.25,E,0,High,1,Sad,60,1,Sad,498,1,High,257.700000000186
165,4,0.25,UE,0,High,0,Happy,0,0,Happy,744.099999999627,1,High,290.200000000186
166,4,0.25,E,1,Low,0,Happy,40,0,Happy,903.799999999814,0,Low,206.300000000745
167,4,0.25,E,1,Low,0,Happy,20,0,Happy,376.399999999441,1,High,305.200000000186
168,4,0.25,UE,1,Low,1,Sad,100,1,Sad,700,1,High,276.799999999814
169,5,0.75,E,0,High,0,Happy,20,0,Happy,677.199999999255,1,High,332.900000000373
170,5,0.75,UE,0,High,1,Sad,60,1,Sad,1254.90000000037,1,High,709.400000000373
171,5,0.75,E,0,High,0,Happy,0,0,Happy,715.700000000186,1,High,286.599999999627
172,5,0.75,E,0,High,0,Happy,40,0,Happy,720.700000000186,0,Low,268.700000000186
173,5,0.75,E,1,Low,1,Sad,60,1,Sad,692.5,1,High,275.200000000186
174,5,0.75,E,1,Low,1,Sad,80,1,Sad,1427.40000000037,1,High,288.800000000745
175,5,0.75,E,1,Low,1,Sad,60,1,Sad,2027.5,1,High,331.200000000186
176,5,0.75,E,0,High,0,Happy,20,0,Happy,761.300000000745,1,High,288.5
177,5,0.75,E,1,Low,1,Sad,100,1,Sad,674.400000000373,1,High,265.799999999814
178,5,0.75,UE,1,Low,0,Happy,0,0,Happy,644.5,1,High,298.799999999814
179,5,0.75,E,0,High,0,Happy,20,0,Happy,584.900000000373,1,High,289.700000000186
180,5,0.75,UE,1,Low,0,Happy,40,0,Happy,882.299999999814,0,Low,778.300000000745
181,5,0.75,E,1,Low,1,Sad,60,1,Sad,1042.79999999981,1,High,392.300000000745
182,5,0.75,E,0,High,0,Happy,40,0,Happy,780.099999999627,0,Low,231.700000000186
183,5,0.75,E,1,Low,1,Sad,80,1,Sad,2670.29999999981,1,High,680.599999999627
184,5,0.75,E,1,Low,1,Sad,80,1,Sad,900.099999999627,1,High,419.5
185,5,0.75,UE,0,High,1,Sad,80,1,Sad,780.799999999814,1,High,248.5
186,5,0.75,UE,0,High,1,Sad,100,1,Sad,751.400000000373,1,High,285.200000000186
187,5,0.75,E,0,High,0,Happy,0,0,Happy,706.599999999627,1,High,284.399999999441
188,5,0.75,E,1,Low,1,Sad,100,1,Sad,1801.59999999963,1,High,336.799999999814
189,5,0.75,UE,1,Low,0,Happy,20,0,Happy,687.599999999627,1,High,403.200000000186
190,5,0.75,E,0,High,0,Happy,0,0,Happy,684.099999999627,1,High,728.799999999814
191,5,0.75,E,1,Low,1,Sad,100,1,Sad,1347.89999999944,1,High,492.800000000745
192,5,0.75,E,0,High,0,Happy,40,0,Happy,941.700000000186,0,Low,293.399999999441
